ITI.started,ITI.stopped,ITI_length,ITI_prc.started,ITI_prc.stopped,block,break_3.started,break_3.stopped,breaks_instruction.started,breaks_instruction.stopped,concept,concept_num,continue_button.duration,continue_button.keys,continue_button.rt,continue_button.started,continue_button_3.duration,continue_button_3.keys,continue_button_3.rt,continue_button_3.started,continue_button_4.duration,continue_button_4.keys,continue_button_4.rt,continue_button_4.started,continue_button_6.duration,continue_button_6.keys,continue_button_6.rt,continue_button_6.started,continue_button_8.duration,continue_button_8.keys,continue_button_8.rt,continue_button_8.started,continue_button_9.duration,continue_button_9.keys,continue_button_9.rt,continue_button_9.started,continue_button_break.duration,continue_button_break.keys,continue_button_break.rt,continue_button_break.started,correct_response,date,expName,expStart,expVersion,fix_cross.started,fix_cross.stopped,fix_cross_2.started,fix_cross_2.stopped,fix_cross_2_prc.started,fix_cross_2_prc.stopped,fix_cross_prc.started,frameRate,image.started,image.stopped,image_prc.started,image_prc.stopped,image_pres.started,image_pres.stopped,image_pres_prc.started,image_pres_prc.stopped,image_shown,instruction_continuebreak.started,instruction_part1.started,instruction_part2.started,instruction_part3.started,instruction_part4.started,instruction_startexp.started,instruction_startexp_2.started,instructions.started,instructions.stopped,instructions_02.started,instructions_02.stopped,instructions_03.started,instructions_03.stopped,instructions_04.started,instructions_04.stopped,instructions_startexp.started,instructions_startexp.stopped,instructions_startexp_02.started,instructions_startexp_02.stopped,is_mismatch,is_prompt,key_resp.keys,key_resp.started,key_resp_prc.keys,key_resp_prc.started,key_resp_prc.stopped,match_idx,nonmatch_pres_side,notes,participant,progress_bar_breaks.started,progress_bar_breaks.stopped,psychopyVersion,settings.started,settings.stopped,sound_pres.started,sound_pres.stopped,sound_pres_prc.started,sound_pres_prc.stopped,spoken_word.started,spoken_word.stopped,spoken_word_prc.started,spoken_word_prc.stopped,thisN,thisRepN,thisRow.t,thisTrialN,trial_in_block,trials.continue_button_break.duration,trials.continue_button_break.keys,trials.continue_button_break.rt,trials.key_resp.keys,trials.thisIndex,trials.thisN,trials.thisRepN,trials.thisTrialN,trials_practice.key_resp_prc.keys,trials_practice.thisIndex,trials_practice.thisN,trials_practice.thisRepN,trials_practice.thisTrialN,word_shown_english,word_shown_french,word_shown_german,
,,,,,,,,,,,,,,,,,,,,,,,,,,,,,,,,,,,,,,,,,2026-07-12_21h56.05.978,TSRlearn_localizer-concepts,2026-07-12 21h56.07.033648 +0200,,,,,,,,,59.934539495083506,,,,,,,,,,,,,,,,,,,,,,,,,,,,,,,,,,,,,,,0,,,2025.2.4,0.01459199999953853,0.014661299999715993,,,,,,,,,,,,,,,,,,,,,,,,,,,,,,
,,,,,,,,,,,,0.1117811999974947,r,5.369194200000493,0.046641500000987435,,,,,,,,,,,,,,,,,,,,,,,,,,2026-07-12_21h56.05.978,TSRlearn_localizer-concepts,2026-07-12 21h56.07.033648 +0200,,,,,,,,,59.934539495083506,,,,,,,,,,,0.046641500000987435,,,,,,0.03084830000079819,5.540213199998107,,,,,,,,,,,,,,,,,,,,,0,,,2025.2.4,,,,,,,,,,,,,,,,,,,,,,,,,,,,,,,,
,,,,,,,,,,,,,,,,0.09592049999992014,r,0.04595770000014454,5.5617730999983905,,,,,,,,,,,,,,,,,,,,,,2026-07-12_21h56.05.978,TSRlearn_localizer-concepts,2026-07-12 21h56.07.033648 +0200,,,,,,,,,59.934539495083506,,,,,,,,,,,,5.5617730999983905,,,,,,,5.545904999999038,5.712207799999305,,,,,,,,,,,,,,,,,,,0,,,2025.2.4,,,,,,,,,,,,,,,,,,,,,,,,,,,,,,,,
,,,,,,,,,,,,,,,,,,,,0.08784619999642018,r,0.0562236000005214,5.7355323000010685,,,,,,,,,,,,,,,,,,2026-07-12_21h56.05.978,TSRlearn_localizer-concepts,2026-07-12 21h56.07.033648 +0200,,,,,,,,,59.934539495083506,,,,,,,,,,,,,5.7355323000010685,,,,,,,,5.720155499999237,5.895273199999792,,,,,,,,,,,,,,,,,0,,,2025.2.4,,,,,,,,,,,,,,,,,,,,,,,,,,,,,,,,
,,,,,,,,,,,,,,,,,,,,,,,,,,,,,,,,0.06396089999907417,r,0.07523280000168597,5.9165350000002945,,,,,,2026-07-12_21h56.05.978,TSRlearn_localizer-concepts,2026-07-12 21h56.07.033648 +0200,,,,,,,,,59.934539495083506,,,,,,,,,,,,,,5.9165350000002945,,,,,,,,,5.9011437999979535,6.071614399999817,,,,,,,,,,,,,,,0,,,2025.2.4,,,,,,,,,,,,,,,,,,,,,,,,,,,,,,,,
,,0.75,8.606965999999375,9.364449500000774,,,,,,,,,,,,,,,,,,,,,,,,,,,,,,,,,,,,y,2026-07-12_21h56.05.978,TSRlearn_localizer-concepts,2026-07-12 21h56.07.033648 +0200,,,,,,8.623797899999772,9.408045699998183,6.8945858999977645,59.934539495083506,,,6.1312713000006624,6.8945858999977645,,,6.103012100000342,6.877243399998406,anchor.jpg,,,,,,,,,,,,,,,,,,,,,,,,None,6.8945858999977645,8.406280700000934,1,right,,0,,,2025.2.4,,,,,6.8806946000004245,8.606915399999707,,,6.893743566666914,7.857952700000169,0,0,2026-07-12_21:56:13.151905,0,,,,,,,,,,None,0,0,0,0,anchor,ancre,Anker,
,,0.89,11.86048640000081,12.76764170000024,,,,,,,,,,,,,,,,,,,,,,,,,,,,,,,,,,,,r,2026-07-12_21h56.05.978,TSRlearn_localizer-concepts,2026-07-12 21h56.07.033648 +0200,,,,,,11.883700999998837,12.815180900000996,10.165731699999014,59.934539495083506,,,9.408045699998183,10.165731699999014,,,9.390078699998412,10.147180399999343,ant.jpg,,,,,,,,,,,,,,,,,,,,,,,,None,10.165731699999014,11.666487399998005,1,left,,0,,,2025.2.4,,,,,10.150145600000542,11.860439299998689,,,10.16360356666725,10.959681799999089,1,0,2026-07-12_21:56:16.428680,1,,,,,,,,,,None,1,1,0,1,ant,fourmi,Ameise,
,,0.85,15.279600400001073,16.131914300000062,,,,,,,,,,,,,,,,,,,,,,,,,,,,,,,,,,,,y,2026-07-12_21h56.05.978,TSRlearn_localizer-concepts,2026-07-12 21h56.07.033648 +0200,,,,,,15.29602629999863,16.174171700000443,13.572678000000451,59.934539495083506,,,12.815180900000996,13.572678000000451,,,12.797287999997934,13.554046000001108,axe.jpg,,,,,,,,,,,,,,,,,,,,,,,,None,13.572678000000451,15.08235109999805,0,left,,0,,,2025.2.4,,,,,13.55713249999826,15.279532799999288,,,13.570504166666312,14.570471399998496,2,0,2026-07-12_21:56:19.835815,2,,,,,,,,,,None,2,2,0,2,horse,cheval,Pferd,
,,1.01,18.615526800000225,19.632952799998748,,,,,,,,,,,,,,,,,,,,,,,,,,,,,,,,,,,,y,2026-07-12_21h56.05.978,TSRlearn_localizer-concepts,2026-07-12 21h56.07.033648 +0200,,,,,,18.632070799998473,19.666870799999742,16.931321000000025,59.934539495083506,,,16.174171700000443,16.931321000000025,,,16.15634549999959,16.91428679999808,bus.jpg,,,,,,,,,,,,,,,,,,,,,,,,None,16.931321000000025,18.432102399998257,1,right,,0,,,2025.2.4,,,,,16.917272999999113,18.615464200000133,,,16.930769166665655,17.89822819999972,3,0,2026-07-12_21:56:23.194806,3,,,,,,,,,,None,3,3,0,3,bus,bus,Bus,
,,1.04,22.10235459999967,23.15263369999957,,,,,,,,,,,,,,,,,,,,,,,,,,,,,,,,,,,,r,2026-07-12_21h56.05.978,TSRlearn_localizer-concepts,2026-07-12 21h56.07.033648 +0200,,,,,,22.118340299999545,23.188315200000943,20.416845799998555,59.934539495083506,,,19.666870799999742,20.416845799998555,,,19.657556199999817,20.400352500000736,ball.jpg,,,,,,,,,,,,,,,,,,,,,,,,None,20.416845799998555,21.918017699998018,0,right,,0,,,2025.2.4,,,,,20.403303099999903,22.102283899999748,,,20.41686156666789,21.385234299999865,4,0,2026-07-12_21:56:26.687505,4,,,,,,,,,,None,4,4,0,4,face,visage,Gesicht,
,,0.99,25.655103199998848,26.655382799999643,,,,,,,,,,,,,,,,,,,,,,,,,,,,,,,,,,,,y,2026-07-12_21h56.05.978,TSRlearn_localizer-concepts,2026-07-12 21h56.07.033648 +0200,,,,,,25.67136699999901,26.685854799998197,23.953530200000387,59.934539495083506,,,23.188315200000943,23.953530200000387,,,23.177273199999036,23.936817599998903,banana.jpg,,,,,,,,,,,,,,,,,,,,,,,,None,23.953530200000387,25.454860599998938,1,right,,0,,,2025.2.4,,,,,23.939868800000113,25.655040099998587,,,23.95331236666631,24.92151190000004,5,0,2026-07-12_21:56:30.208949,5,,,,,,,,,,None,5,5,0,5,banana,banane,Banane,
,,0.79,29.12463149999894,29.924785799998062,,,,,,,,,,,,,,,,,,,,,,,,,,,,,,,,,,,,r,2026-07-12_21h56.05.978,TSRlearn_localizer-concepts,2026-07-12 21h56.07.033648 +0200,,,,,,29.141072200000053,29.96036240000103,27.4404641000001,59.934539495083506,,,26.685854799998197,27.4404641000001,,,26.676985400001286,27.424052499998652,glasses.jpg,,,,,,,,,,,,,,,,,,,,,,,,None,27.4404641000001,28.94136150000122,1,left,,0,,,2025.2.4,,,,,27.42695249999815,29.12457970000105,,,27.44059696666615,28.42443600000115,6,0,2026-07-12_21:56:33.706489,6,,,,,,,,,,None,6,6,0,6,glasses,lunettes,Brille,
,,0.77,32.410478499998135,33.1942730999981,,,,,,,,,,,,,,,,,,,,,,,,,,,,,,,,,,,,y,2026-07-12_21h56.05.978,TSRlearn_localizer-concepts,2026-07-12 21h56.07.033648 +0200,,,,,,32.428990199998225,33.23216820000016,30.70993509999971,59.934539495083506,,,29.96036240000103,30.70993509999971,,,29.951071600000432,30.693773599999986,basket.jpg,,,,,,,,,,,,,,,,,,,,,,,,None,30.70993509999971,32.21008059999804,1,right,,0,,,2025.2.4,,,,,30.69674329999907,32.410409600001,,,30.71024156666705,31.69568470000013,7,0,2026-07-12_21:56:36.980996,7,,,,,,,,,,None,7,7,0,7,basket,panier,Korb,
,,1.23,35.69707919999928,36.93221039999844,,,,,,,,,,,,,,,,,,,,,,,,,,,,,,,,,,,,r,2026-07-12_21h56.05.978,TSRlearn_localizer-concepts,2026-07-12 21h56.07.033648 +0200,,,,,,35.71349569999802,36.96626879999894,34.00088490000053,59.934539495083506,,,33.23216820000016,34.00088490000053,,,33.22294690000126,33.97996570000032,bear.jpg,,,,,,,,,,,,,,,,,,,,,,,,None,34.00088490000053,35.51326119999794,0,right,,0,,,2025.2.4,,,,,33.98292289999881,35.69701879999775,,,33.996437966667386,34.86327900000106,8,0,2026-07-12_21:56:40.252802,8,,,,,,,,,,None,8,8,0,8,milk,lait,Milch,
,,1.1,39.41780139999901,40.53414619999967,,,,,,,,,,,,,,,,,,,,,,,,,,,,,,,,,,,,y,2026-07-12_21h56.05.978,TSRlearn_localizer-concepts,2026-07-12 21h56.07.033648 +0200,,,,,,39.44067440000072,40.569380799999635,37.71708800000124,59.934539495083506,,,36.96626879999894,37.71708800000124,,,36.95532869999806,37.70062859999962,belt.jpg,,,,,,,,,,,,,,,,,,,,,,,,None,37.71708800000124,39.216076599997905,1,left,,0,,,2025.2.4,,,,,37.70341059999919,39.417745800001285,,,37.71715196666652,38.60072980000041,9,0,2026-07-12_21:56:43.986903,9,,,,,,,,,,None,9,9,0,9,belt,ceinture,Gürtel,
,,1.25,43.00319049999962,44.25490350000109,,,,,,,,,,,,,,,,,,,,,,,,,,,,,,,,,,,,y,2026-07-12_21h56.05.978,TSRlearn_localizer-concepts,2026-07-12 21h56.07.033648 +0200,,,,,,43.020760999999766,44.36150719999932,41.31765879999875,59.934539495083506,,,40.569380799999635,41.31765879999875,,,40.559719299999415,41.301854000001185,bike.jpg,,,,,,,,,,,,,,,,,,,,,,,,None,41.31765879999875,42.81926039999962,1,left,,0,,,2025.2.4,,,,,41.30500050000046,43.00313509999978,,,41.31839026666445,42.33559640000021,10,0,2026-07-12_21:56:47.590015,10,,,,,,,,,,None,10,10,0,10,bicycle,vélo,Fahrrad,
,,,,,,,,,,,,,,,,,,,,,,,,0.06398730000000796,g,54.44837439999901,44.36150719999932,,,,,,,,,,,,,,2026-07-12_21h56.05.978,TSRlearn_localizer-concepts,2026-07-12 21h56.07.033648 +0200,,,,,,,,,59.934539495083506,,,,,,,,,,,,,,,44.36150719999932,,,,,,,,,,44.346490600000834,98.88410479999948,,,,,,,,,,,,,0,,,2025.2.4,,,,,,,,,,,,,,,,,,,,,,,,,,,,,,,,
,,,,,,,,,,,,,,,,,,,,,,,,,,,,0.08026389999940875,g,0.05282129999977769,98.9011118999988,,,,,,,,,,2026-07-12_21h56.05.978,TSRlearn_localizer-concepts,2026-07-12 21h56.07.033648 +0200,,,,,,,,,59.934539495083506,,,,,,,,,,,,,,,,98.9011118999988,,,,,,,,,,,98.89059719999932,99.03479760000118,,,,,,,,,,,0,,,2025.2.4,,,,,,,,,,,,,,,,,,,,,,,,,,,,,,,,
101.71017829999982,102.58759680000003,0.87,,,1,102.5937668000006,102.59381349999967,,,chair,4,,,,,,,,,,,,,,,,,,,,,,,,,,None,,,None,2026-07-12_21h56.05.978,TSRlearn_localizer-concepts,2026-07-12 21h56.07.033648 +0200,,100.01847049999924,101.7269383999992,101.7269383999992,102.63276179999957,,,,59.934539495083506,99.26179299999785,100.01847049999924,,,99.23689409999861,100.00143490000119,,,chair\chair_35.jpg,,,,,,,,,,,,,,,,,,,,0,1,None,100.01847049999924,,,,,None,,0,,,2025.2.4,,,100.00502079999933,101.71011169999838,,,100.01792026666614,100.96914520000064,,,0,0,2026-07-12_21:57:46.282427,0,1,,None,,None,0,0,0,0,,,,,,chair,Chaise,Stuhl,
105.11486349999905,106.1149364999983,0.99,,,1,106.11501299999873,106.11505609999949,,,hand,8,,,,,,,,,,,,,,,,,,,,,,,,,,None,,,None,2026-07-12_21h56.05.978,TSRlearn_localizer-concepts,2026-07-12 21h56.07.033648 +0200,,103.40170429999853,105.12650719999874,105.12650719999874,106.1514184000007,,,,59.934539495083506,102.63276179999957,103.40170429999853,,,102.61486769999829,103.37811619999775,,,hand\hand_29.jpg,,,,,,,,,,,,,,,,,,,,0,1,None,103.40170429999853,,,,,None,,0,,,2025.2.4,,,103.38115169999946,105.1147873000009,,,103.39451796666641,104.24493419999999,,,1,0,2026-07-12_21:57:49.653396,1,2,,None,,None,1,1,0,1,,,,,,hand,Main,Hand,
108.60876260000077,109.49318879999919,0.88,,,1,109.49326649999784,109.49331249999886,,,bicycle,2,,,,,,,,,,,,,,,,,,,,,,,,,,None,,,r,2026-07-12_21h56.05.978,TSRlearn_localizer-concepts,2026-07-12 21h56.07.033648 +0200,,106.90936919999876,108.62504229999831,108.62504229999831,109.55417630000011,,,,59.934539495083506,106.1514184000007,106.90936919999876,,,106.1330151000002,106.89121990000058,,,bicycle\bicycle_04.jpg,,,,,,,,,,,,,,,,,,,,1,1,None,106.90936919999876,,,,,right,,0,,,2025.2.4,,,106.89416359999814,108.60869040000034,,,106.90766946666578,107.85808919999909,,,2,0,2026-07-12_21:57:53.172052,2,3,,None,,None,2,2,0,2,,,,,,ball,Ballon,Ball,
112.00170330000037,112.87845720000041,0.87,,,1,112.8785355,112.87858090000009,,,house,9,,,,,,,,,,,,,,,,,,,,,,,,,,None,,,None,2026-07-12_21h56.05.978,TSRlearn_localizer-concepts,2026-07-12 21h56.07.033648 +0200,,110.31064459999834,112.01866289999816,112.01866289999816,112.94064849999995,,,,59.934539495083506,109.55417630000011,110.31064459999834,,,109.53436760000113,110.29359789999944,,,house\house_42.jpg,,,,,,,,,,,,,,,,,,,,0,1,None,110.31064459999834,,,,,None,,0,,,2025.2.4,,,110.2972133000003,112.00161819999994,,,110.31003566666574,111.28447560000131,,,3,0,2026-07-12_21:57:56.574810,3,4,,None,,None,3,3,0,3,,,,,,house,Maison,Haus,
115.40474069999982,116.62304740000036,1.22,,,1,116.62311920000138,116.62315959999978,,,jacket,10,,,,,,,,,,,,,,,,,,,,,,,,,,None,,,None,2026-07-12_21h56.05.978,TSRlearn_localizer-concepts,2026-07-12 21h56.07.033648 +0200,,113.70752250000078,115.41942909999852,115.41942909999852,116.66419350000069,,,,59.934539495083506,112.94064849999995,113.70752250000078,,,112.9182753999994,113.68448640000133,,,jacket\jacket_29.jpg,,,,,,,,,,,,,,,,,,,,0,1,None,113.70752250000078,,,,,None,,0,,,2025.2.4,,,113.68757089999781,115.404671100001,,,113.70095076666645,114.67815820000033,,,4,0,2026-07-12_21:57:59.961282,4,5,,None,,None,4,4,0,4,,,,,,jacket,Veste,Jacke,
119.14195059999838,120.05731899999955,0.91,,,1,120.05739109999922,120.05742879999889,,,dog,5,,,,,,,,,,,,,,,,,,,,,,,,,,None,,,None,2026-07-12_21h56.05.978,TSRlearn_localizer-concepts,2026-07-12 21h56.07.033648 +0200,,117.42876569999862,119.15838789999907,119.15838789999907,120.1532933999988,,,,59.934539495083506,116.66419350000069,117.42876569999862,,,116.64590119999775,117.4059821999981,,,dog\dog_40.jpg,,,,,,,,,,,,,,,,,,,,0,1,None,117.42876569999862,,,,,None,,0,,,2025.2.4,,,117.40898749999906,119.14188060000015,,,117.42240976666677,118.33350860000064,,,5,0,2026-07-12_21:58:03.684827,5,6,,None,,None,5,5,0,5,,,,,,dog,Chien,Hund,
122.62818179999886,123.72778059999837,1.1,,,1,123.72785830000066,123.72789389999889,,,jacket,10,,,,,,,,,,,,,,,,,,,,,,,,,,None,,,None,2026-07-12_21h56.05.978,TSRlearn_localizer-concepts,2026-07-12 21h56.07.033648 +0200,,120.91598370000065,122.64235499999995,122.64235499999995,123.78334209999957,,,,59.934539495083506,120.1532933999988,120.91598370000065,,,120.11646660000042,120.89557720000084,,,jacket\jacket_50.jpg,,,,,,,,,,,,,,,,,,,,0,1,None,120.91598370000065,,,,,None,,0,,,2025.2.4,,,120.89848029999848,122.62811059999876,,,120.91196956666705,121.87464439999894,,,6,0,2026-07-12_21:58:07.173927,6,7,,None,,None,6,6,0,6,,,,,,jacket,Veste,Jacke,
126.25695939999787,127.15770319999865,0.9,,,1,127.15778819999832,127.15783089999968,,,flower,6,,,,,,,,,,,,,,,,,,,,,,,,,,None,,,None,2026-07-12_21h56.05.978,TSRlearn_localizer-concepts,2026-07-12 21h56.07.033648 +0200,,124.54917550000027,126.27316509999946,126.27316509999946,127.18211840000004,,,,59.934539495083506,123.78334209999957,124.54917550000027,,,123.76276320000034,124.52943400000004,,,flower\flower_07.jpg,,,,,,,,,,,,,,,,,,,,0,1,None,124.54917550000027,,,,,None,,0,,,2025.2.4,,,124.53238549999878,126.25688549999904,,,124.54588026666558,125.5064663000012,,,7,0,2026-07-12_21:58:10.803976,7,8,,None,,None,7,7,0,7,,,,,,flower,Fleur,Blume,
129.64560580000034,130.59966590000113,0.95,,,1,130.59974689999945,130.5997881000003,,,dog,5,,,,,,,,,,,,,,,,,,,,,,,,,,None,,,None,2026-07-12_21h56.05.978,TSRlearn_localizer-concepts,2026-07-12 21h56.07.033648 +0200,,127.94205829999919,129.6645724000009,129.6645724000009,130.64031429999886,,,,59.934539495083506,127.18211840000004,127.94205829999919,,,127.17252580000059,127.92544540000017,,,dog\dog_37.jpg,,,,,,,,,,,,,,,,,,,,0,1,None,127.94205829999919,,,,,None,,0,,,2025.2.4,,,127.92851520000113,129.64553289999822,,,127.9419785666653,128.86670539999977,,,8,0,2026-07-12_21:58:14.202752,8,9,,None,,None,8,8,0,8,,,,,,dog,Chien,Hund,
133.0874885000012,134.28120430000126,1.19,,,1,134.28127989999848,134.2813219999989,,,bicycle,2,,,,,,,,,,,,,,,,,,,,,,,,,,None,,,None,2026-07-12_21h56.05.978,TSRlearn_localizer-concepts,2026-07-12 21h56.07.033648 +0200,,131.40480910000042,133.0963523999999,133.0963523999999,134.31639350000114,,,,59.934539495083506,130.64031429999886,131.40480910000042,,,130.62220900000102,131.3838641000002,,,bicycle\bicycle_31.jpg,,,,,,,,,,,,,,,,,,,,0,1,None,131.40480910000042,,,,,None,,0,,,2025.2.4,,,131.38707900000009,133.0874189999995,,,131.400318866665,132.41972270000042,,,9,0,2026-07-12_21:58:17.660948,9,10,,None,,None,9,9,0,9,,,,,,bicycle,Vélo,Fahrrad,
136.79896649999864,138.02460299999802,1.21,,,1,138.024678400001,138.02473339999779,,,jacket,10,,,,,,,,,,,,,,,,,,,,,,,,,,None,,,None,2026-07-12_21h56.05.978,TSRlearn_localizer-concepts,2026-07-12 21h56.07.033648 +0200,,135.08152029999837,136.81591219999973,136.81591219999973,138.08618600000045,,,,59.934539495083506,134.31639350000114,135.08152029999837,,,134.29882169999837,135.06504359999963,,,jacket\jacket_16.jpg,,,,,,,,,,,,,,,,,,,,0,1,None,135.08152029999837,,,,,None,,0,,,2025.2.4,,,135.06798619999972,136.79888980000032,,,135.08155756666773,136.04879230000006,,,10,0,2026-07-12_21:58:21.337028,10,11,,None,,None,10,10,0,10,,,,,,jacket,Veste,Jacke,
140.5281389999982,141.76145539999925,1.22,,,1,141.76152939999884,141.76156479999918,,,bread,3,,,,,,,,,,,,,,,,,,,,,,,,,,None,,,None,2026-07-12_21h56.05.978,TSRlearn_localizer-concepts,2026-07-12 21h56.07.033648 +0200,,138.84178859999884,140.54313619999812,140.54313619999812,141.88805879999927,,,,59.934539495083506,138.08618600000045,138.84178859999884,,,138.06501180000123,138.81888360000085,,,bread\bread_13.jpg,,,,,,,,,,,,,,,,,,,,0,1,None,138.84178859999884,,,,,None,,0,,,2025.2.4,,,138.82169000000067,140.5280567000009,,,138.835376766667,139.74219079999966,,,11,0,2026-07-12_21:58:25.106820,11,12,,None,,None,11,11,0,11,,,,,,bread,Pain,Brot,
144.33869870000126,145.25666170000113,0.91,,,1,145.25674509999953,145.25679769999988,,,ball,1,,,,,,,,,,,,,,,,,,,,,,,,,,None,,,None,2026-07-12_21h56.05.978,TSRlearn_localizer-concepts,2026-07-12 21h56.07.033648 +0200,,142.63781910000034,144.35622330000115,144.35622330000115,145.29334999999992,,,,59.934539495083506,141.88805879999927,142.63781910000034,,,141.83539780000137,142.62152290000085,,,ball\ball_12.jpg,,,,,,,,,,,,,,,,,,,,0,1,None,142.63781910000034,,,,,None,,0,,,2025.2.4,,,142.62439969999832,144.33861949999846,,,142.63803836666582,143.57105539999975,,,12,0,2026-07-12_21:58:28.908693,12,13,,None,,None,12,12,0,12,,,,,,ball,Ballon,Ball,
147.74880330000087,148.6851542000004,0.93,,,1,148.68525990000126,148.68530869999813,,,dog,5,,,,,,,,,,,,,,,,,,,,,,,,,,None,,,None,2026-07-12_21h56.05.978,TSRlearn_localizer-concepts,2026-07-12 21h56.07.033648 +0200,,146.04982720000044,147.76580130000002,147.76580130000002,148.75065360000008,,,,59.934539495083506,145.29334999999992,146.04982720000044,,,145.27497249999942,146.0290270000005,,,dog\dog_03.jpg,,,,,,,,,,,,,,,,,,,,0,1,None,146.04982720000044,,,,,None,,0,,,2025.2.4,,,146.03246779999972,147.74873490000027,,,146.04549306666766,146.96956929999942,,,13,0,2026-07-12_21:58:32.313984,13,14,,None,,None,13,13,0,13,,,,,,dog,Chien,Hund,
151.2323030999978,152.3788902999986,1.13,,,1,152.3789708000004,152.37901079999938,,,bread,3,,,,,,,,,,,,,,,,,,,,,,,,,,None,,,None,2026-07-12_21h56.05.978,TSRlearn_localizer-concepts,2026-07-12 21h56.07.033648 +0200,,149.51971259999846,151.25218329999916,151.25218329999916,152.40335839999898,,,,59.934539495083506,148.75065360000008,149.51971259999846,,,148.72943459999806,149.49585039999874,,,bread\bread_19.jpg,,,,,,,,,,,,,,,,,,,,0,1,None,149.51971259999846,,,,,None,,0,,,2025.2.4,,,149.4987583000002,151.2322220999995,,,149.5122698666676,150.41329079999923,,,14,0,2026-07-12_21:58:35.771287,14,15,,None,,None,14,14,0,14,,,,,,bread,Pain,Brot,
154.85171640000044,155.87559500000134,1,,,1,155.87566140000126,155.87569910000093,,,chair,4,,,,,,,,,,,,,,,,,,,,,,,,,,None,,,r,2026-07-12_21h56.05.978,TSRlearn_localizer-concepts,2026-07-12 21h56.07.033648 +0200,,153.1630555999982,154.87205370000083,154.87205370000083,155.9340032,,,,59.934539495083506,152.40335839999898,153.1630555999982,,,152.3941206999989,153.14698080000016,,,chair\chair_21.jpg,,,,,,,,,,,,,,,,,,,,1,1,None,153.1630555999982,,,,,left,,0,,,2025.2.4,,,153.1497933999999,154.85164649999933,,,153.16351816666455,154.08015410000007,,,15,0,2026-07-12_21:58:39.423992,15,16,,None,,None,15,15,0,15,,,,,,dog,Chien,Hund,
158.3931870999986,159.20938409999872,0.82,,,1,159.20946209999966,159.20950420000008,,,bread,3,,,,,,,,,,,,,,,,,,,,,,,,,,None,,,None,2026-07-12_21h56.05.978,TSRlearn_localizer-concepts,2026-07-12 21h56.07.033648 +0200,,156.6968992000002,158.40540880000117,158.40540880000117,159.2459912000013,,,,59.934539495083506,155.9340032,156.6968992000002,,,155.9155365000006,156.67355319999842,,,bread\bread_14.jpg,,,,,,,,,,,,,,,,,,,,0,1,None,156.6968992000002,,,,,None,,0,,,2025.2.4,,,156.67668919999778,158.39312509999945,,,156.6898944666648,157.5940030999991,,,16,0,2026-07-12_21:58:42.954637,16,17,,None,,None,16,16,0,16,,,,,,bread,Pain,Brot,
161.68802900000082,162.88772020000033,1.2,,,1,162.8877934000011,162.88783719999992,,,chair,4,,,,,,,,,,,,,,,,,,,,,,,,,,None,,,None,2026-07-12_21h56.05.978,TSRlearn_localizer-concepts,2026-07-12 21h56.07.033648 +0200,,160.0027756999989,161.7043663000004,161.7043663000004,162.9420930999986,,,,59.934539495083506,159.2459912000013,160.0027756999989,,,159.22756329999902,159.98642339999788,,,chair\chair_25.jpg,,,,,,,,,,,,,,,,,,,,0,1,None,160.0027756999989,,,,,None,,0,,,2025.2.4,,,159.98941449999984,161.68795659999887,,,160.0029579666664,160.93669260000024,,,17,0,2026-07-12_21:58:46.266625,17,18,,None,,None,17,17,0,17,,,,,,chair,Chaise,Stuhl,
165.39564769999924,166.5094207000002,1.11,,,1,166.5095380999992,166.5095861000009,,,hammer,7,,,,,,,,,,,,,,,,,,,,,,,,,,None,,,None,2026-07-12_21h56.05.978,TSRlearn_localizer-concepts,2026-07-12 21h56.07.033648 +0200,,163.70880680000118,165.41427589999876,165.41427589999876,166.55108159999872,,,,59.934539495083506,162.9420930999986,163.70880680000118,,,162.92666259999896,163.69150190000073,,,hammer\hammer_44.jpg,,,,,,,,,,,,,,,,,,,,0,1,None,163.70880680000118,,,,,None,,0,,,2025.2.4,,,163.6947728999985,165.39558039999974,,,163.70792406666467,164.66364949999843,,,18,0,2026-07-12_21:58:49.962727,18,19,,None,,None,18,18,0,18,,,,,,hammer,Marteau,Hammer,
169.01199819999965,169.79355159999977,0.77,,,1,169.79363379999995,169.79367759999877,,,house,9,,,,,,,,,,,,,,,,,,,,,,,,,,None,,,None,2026-07-12_21h56.05.978,TSRlearn_localizer-concepts,2026-07-12 21h56.07.033648 +0200,,167.32230889999846,169.028465899999,169.028465899999,169.81862009999895,,,,59.934539495083506,166.55108159999872,167.32230889999846,,,166.52849159999823,167.302029399998,,,house\house_11.jpg,,,,,,,,,,,,,,,,,,,,0,1,None,167.32230889999846,,,,,None,,0,,,2025.2.4,,,167.30502630000046,169.01192629999787,,,167.3184127666648,168.2898748999978,,,19,0,2026-07-12_21:58:53.571716,19,20,,None,,None,19,19,0,19,,,,,,house,Maison,Haus,
172.26297189999968,173.16980150000018,0.9,,,1,173.16987710000103,173.16991929999858,,,hand,8,,,,,,,,,,,,,,,,,,,,,,,,,,None,,,None,2026-07-12_21h56.05.978,TSRlearn_localizer-concepts,2026-07-12 21h56.07.033648 +0200,,170.57813429999806,172.27864879999834,172.27864879999834,173.20511790000091,,,,59.934539495083506,169.81862009999895,170.57813429999806,,,169.80951319999804,170.56180219999806,,,hand\hand_34.jpg,,,,,,,,,,,,,,,,,,,,0,1,None,170.57813429999806,,,,,None,,0,,,2025.2.4,,,170.56450369999948,172.2629014999984,,,170.57826106666496,171.4111617999988,,,20,0,2026-07-12_21:58:56.839254,20,21,,None,,None,20,20,0,20,,,,,,hand,Main,Hand,
175.6556004999984,176.47558469999785,0.82,,,1,176.47566119999829,176.4757028999993,,,bicycle,2,,,,,,,,,,,,,,,,,,,,,,,,,,None,,,None,2026-07-12_21h56.05.978,TSRlearn_localizer-concepts,2026-07-12 21h56.07.033648 +0200,,173.95813070000077,175.66819010000108,175.66819010000108,176.51224000000002,,,,59.934539495083506,173.20511790000091,173.95813070000077,,,173.18685529999857,173.93767709999884,,,bicycle\bicycle_46.jpg,,,,,,,,,,,,,,,,,,,,0,1,None,173.95813070000077,,,,,None,,0,,,2025.2.4,,,173.94079649999912,175.65553269999873,,,173.9541384666666,174.97113239999817,,,21,0,2026-07-12_21:59:00.225752,21,22,,None,,None,21,21,0,21,,,,,,bicycle,Vélo,Fahrrad,
178.96881139999823,179.98615419999987,1.01,,,1,179.9862327999981,179.98628029999963,,,hammer,7,,,,,,,,,,,,,,,,,,,,,,,,,,None,,,None,2026-07-12_21h56.05.978,TSRlearn_localizer-concepts,2026-07-12 21h56.07.033648 +0200,,177.2670767999989,178.98542269999962,178.98542269999962,180.03305499999988,,,,59.934539495083506,176.51224000000002,177.2670767999989,,,176.49338929999794,177.25244480000038,,,hammer\hammer_35.jpg,,,,,,,,,,,,,,,,,,,,0,1,None,177.2670767999989,,,,,None,,0,,,2025.2.4,,,177.2551843000001,178.96875029999865,,,177.26890716666483,178.22102249999807,,,22,0,2026-07-12_21:59:03.532874,22,23,,None,,None,22,22,0,22,,,,,,hammer,Marteau,Hammer,
182.49603109999953,183.51322679999794,1.01,,,1,183.51329970000006,183.51333800000066,,,flower,6,,,,,,,,,,,,,,,,,,,,,,,,,,None,,,None,2026-07-12_21h56.05.978,TSRlearn_localizer-concepts,2026-07-12 21h56.07.033648 +0200,,180.78634210000018,182.5116725000007,182.5116725000007,183.58764800000063,,,,59.934539495083506,180.03305499999988,180.78634210000018,,,180.02162139999928,180.76991609999823,,,flower\flower_38.jpg,,,,,,,,,,,,,,,,,,,,0,1,None,180.78634210000018,,,,,None,,0,,,2025.2.4,,,180.77277780000077,182.4959630000012,,,180.7864348666665,181.76302360000045,,,23,0,2026-07-12_21:59:07.053689,23,24,,None,,None,23,23,0,23,,,,,,flower,Fleur,Blume,
186.0488191000004,186.99264409999887,0.93,,,1,186.99271389999922,186.9927538999982,,,hand,8,,,,,,,,,,,,,,,,,,,,,,,,,,None,,,None,2026-07-12_21h56.05.978,TSRlearn_localizer-concepts,2026-07-12 21h56.07.033648 +0200,,184.35235290000128,186.06516320000082,186.06516320000082,187.04294980000122,,,,59.934539495083506,183.58764800000063,184.35235290000128,,,183.5646428,184.3296252,,,hand\hand_46.jpg,,,,,,,,,,,,,,,,,,,,0,1,None,184.35235290000128,,,,,None,,0,,,2025.2.4,,,184.3326038999985,186.04875139999785,,,184.34609876666607,185.1904985000001,,,24,0,2026-07-12_21:59:10.608282,24,25,,None,,None,24,24,0,24,,,,,,hand,Main,Hand,
189.4937929000007,190.5845608999989,1.09,,,1,190.58464050000111,190.58468210000137,,,dog,5,,,,,,,,,,,,,,,,,,,,,,,,,,None,,,None,2026-07-12_21h56.05.978,TSRlearn_localizer-concepts,2026-07-12 21h56.07.033648 +0200,,187.7925706999995,189.51104489999852,189.51104489999852,190.6224512000008,,,,59.934539495083506,187.04294980000122,187.7925706999995,,,187.0236698999979,187.77570249999917,,,dog\dog_28.jpg,,,,,,,,,,,,,,,,,,,,0,1,None,187.7925706999995,,,,,None,,0,,,2025.2.4,,,187.77879770000072,189.49372589999984,,,187.79219586666684,188.70955780000077,,,25,0,2026-07-12_21:59:14.063584,25,26,,None,,None,25,25,0,25,,,,,,dog,Chien,Hund,
193.08123179999893,194.33908969999902,1.24,,,1,194.33919329999844,194.33924879999904,,,bicycle,2,,,,,,,,,,,,,,,,,,,,,,,,,,None,,,None,2026-07-12_21h56.05.978,TSRlearn_localizer-concepts,2026-07-12 21h56.07.033648 +0200,,191.39098039999953,193.09808079999857,193.09808079999857,194.40511559999868,,,,59.934539495083506,190.6224512000008,191.39098039999953,,,190.6015402999983,191.37001389999932,,,bicycle\bicycle_29.jpg,,,,,,,,,,,,,,,,,,,,0,1,None,191.39098039999953,,,,,None,,0,,,2025.2.4,,,191.37328689999777,193.08116049999808,,,191.38645836666572,192.3993674000012,,,26,0,2026-07-12_21:59:17.643085,26,27,,None,,None,26,26,0,26,,,,,,bicycle,Vélo,Fahrrad,
196.86803289999807,198.0007297000011,1.12,,,1,198.00080660000094,198.0008530999985,,,ball,1,,,,,,,,,,,,,,,,,,,,,,,,,,None,,,r,2026-07-12_21h56.05.978,TSRlearn_localizer-concepts,2026-07-12 21h56.07.033648 +0200,,195.1718327999988,196.88538929999777,196.88538929999777,198.03988129999925,,,,59.934539495083506,194.40511559999868,195.1718327999988,,,194.3827070999978,195.15194730000076,,,ball\ball_48.jpg,,,,,,,,,,,,,,,,,,,,1,1,None,195.1718327999988,,,,,right,,0,,,2025.2.4,,,195.15480829999797,196.86796799999865,,,195.16841656666682,196.1322954999996,,,27,0,2026-07-12_21:59:21.425750,27,28,,None,,None,27,27,0,27,,,,,,jacket,Veste,Jacke,
200.49057999999786,201.29332520000025,0.8,,,1,201.2933981999995,201.29343810000137,,,flower,6,,,,,,,,,,,,,,,,,,,,,,,,,,None,,,None,2026-07-12_21h56.05.978,TSRlearn_localizer-concepts,2026-07-12 21h56.07.033648 +0200,,198.8077900999997,200.50512159999926,200.50512159999926,201.3574891999997,,,,59.934539495083506,198.03988129999925,198.8077900999997,,,198.0279116999991,198.7855512999995,,,flower\flower_05.jpg,,,,,,,,,,,,,,,,,,,,0,1,None,198.8077900999997,,,,,None,,0,,,2025.2.4,,,198.78842319999967,200.4905073000009,,,198.8020329666654,199.7713976999985,,,28,0,2026-07-12_21:59:25.060515,28,29,,None,,None,28,28,0,28,,,,,,flower,Fleur,Blume,
203.8142289999996,204.6793249000002,0.86,,,1,204.67939470000056,204.67943319999904,,,bread,3,,,,,,,,,,,,,,,,,,,,,,,,,,None,,,None,2026-07-12_21h56.05.978,TSRlearn_localizer-concepts,2026-07-12 21h56.07.033648 +0200,,202.11877900000036,203.82810750000135,203.82810750000135,204.72776099999828,,,,59.934539495083506,201.3574891999997,202.11877900000036,,,201.33401120000053,202.0978126000009,,,bread\bread_48.jpg,,,,,,,,,,,,,,,,,,,,0,1,None,202.11877900000036,,,,,None,,0,,,2025.2.4,,,202.1013340999998,203.8141613000007,,,202.11421526666552,203.02211859999807,,,29,0,2026-07-12_21:59:28.378123,29,30,,None,,None,29,29,0,29,,,,,,bread,Pain,Brot,
207.19726570000057,208.30093620000116,1.1,,,1,208.30101529999956,208.3010585999982,,,flower,6,,,,,,,,,,,,,,,,,,,,,,,,,,None,,,None,2026-07-12_21h56.05.978,TSRlearn_localizer-concepts,2026-07-12 21h56.07.033648 +0200,,205.49131479999778,207.21331559999817,207.21331559999817,208.35379610000018,,,,59.934539495083506,204.72776099999828,205.49131479999778,,,204.70443660000092,205.4739152000002,,,flower\flower_10.jpg,,,,,,,,,,,,,,,,,,,,0,1,None,205.49131479999778,,,,,None,,0,,,2025.2.4,,,205.4768695999992,207.19719769999938,,,205.49042536666482,206.46477629999936,,,30,0,2026-07-12_21:59:31.748395,30,31,,None,,None,30,30,0,30,,,,,,flower,Fleur,Blume,
210.80603079999855,211.55565999999817,0.75,,,1,211.5557528999998,211.55580650000047,,,dog,5,,,,,,,,,,,,,,,,,,,,,,,,,,None,,,None,2026-07-12_21h56.05.978,TSRlearn_localizer-concepts,2026-07-12 21h56.07.033648 +0200,,209.12415989999863,210.82183720000103,210.82183720000103,211.59201969999776,,,,59.934539495083506,208.35379610000018,209.12415989999863,,,208.333421299998,209.10048409999945,,,dog\dog_10.jpg,,,,,,,,,,,,,,,,,,,,0,1,None,209.12415989999863,,,,,None,,0,,,2025.2.4,,,209.10342949999904,210.805958500001,,,209.1169116666645,210.05237829999896,,,31,0,2026-07-12_21:59:35.374430,31,32,,None,,None,31,31,0,31,,,,,,dog,Chien,Hund,
214.03902599999856,215.10011999999915,1.06,,,1,215.1001940999995,215.10023809999984,,,ball,1,,,,,,,,,,,,,,,,,,,,,,,,,,None,,,None,2026-07-12_21h56.05.978,TSRlearn_localizer-concepts,2026-07-12 21h56.07.033648 +0200,,212.35600519999934,214.0550602000003,214.0550602000003,215.13282999999865,,,,59.934539495083506,211.59201969999776,212.35600519999934,,,211.57296599999972,212.3318232999991,,,ball\ball_29.jpg,,,,,,,,,,,,,,,,,,,,0,1,None,212.35600519999934,,,,,None,,0,,,2025.2.4,,,212.3350160000009,214.03892559999804,,,212.3482750666665,213.29733570000099,,,32,0,2026-07-12_21:59:38.612654,32,33,,None,,None,32,32,0,32,,,,,,ball,Ballon,Ball,
217.5774715999978,218.5583270999996,0.98,,,1,218.55840739999985,218.5584514000002,,,chair,4,,,,,,,,,,,,,,,,,,,,,,,,,,None,,,None,2026-07-12_21h56.05.978,TSRlearn_localizer-concepts,2026-07-12 21h56.07.033648 +0200,,215.89593360000072,217.5900201000004,217.5900201000004,218.60062710000057,,,,59.934539495083506,215.13282999999865,215.89593360000072,,,215.11429099999805,215.8732147999981,,,chair\chair_05.jpg,,,,,,,,,,,,,,,,,,,,0,1,None,215.89593360000072,,,,,None,,0,,,2025.2.4,,,215.876314000001,217.57740299999932,,,215.88965966666754,216.8180973999988,,,33,0,2026-07-12_21:59:42.153464,33,34,,None,,None,33,33,0,33,,,,,,chair,Chaise,Stuhl,
221.04522689999794,221.92490829999952,0.87,,,1,221.92500289999953,221.9250487999998,,,flower,6,,,,,,,,,,,,,,,,,,,,,,,,,,None,,,None,2026-07-12_21h56.05.978,TSRlearn_localizer-concepts,2026-07-12 21h56.07.033648 +0200,,219.36248139999952,221.06149979999827,221.06149979999827,221.99046530000123,,,,59.934539495083506,218.60062710000057,219.36248139999952,,,218.58195870000054,219.34184549999918,,,flower\flower_15.jpg,,,,,,,,,,,,,,,,,,,,0,1,None,219.36248139999952,,,,,None,,0,,,2025.2.4,,,219.3451359999999,221.04515759999776,,,219.35834166666635,220.33035720000044,,,34,0,2026-07-12_21:59:45.621261,34,35,,None,,None,34,34,0,34,,,,,,flower,Fleur,Blume,
224.45734729999822,225.5241199000011,1.06,,,1,225.52420859999984,225.5242545000001,,,hammer,7,,,,,,,,,,,,,,,,,,,,,,,,,,None,,,None,2026-07-12_21h56.05.978,TSRlearn_localizer-concepts,2026-07-12 21h56.07.033648 +0200,,222.75522479999927,224.4744236000006,224.4744236000006,225.54815999999846,,,,59.934539495083506,221.99046530000123,222.75522479999927,,,221.96443,222.73896819999936,,,hammer\hammer_43.jpg,,,,,,,,,,,,,,,,,,,,0,1,None,222.75522479999927,,,,,None,,0,,,2025.2.4,,,222.74173959999825,224.45728020000024,,,222.75548346666645,223.6890858000006,,,35,0,2026-07-12_21:59:49.011099,35,36,,None,,None,35,35,0,35,,,,,,hammer,Marteau,Hammer,
228.00037429999793,228.7869619999983,0.77,,,1,228.78707880000002,228.7871477000008,,,house,9,,,,,,,,,,,,,,,,,,,,,,,,,,None,,,None,2026-07-12_21h56.05.978,TSRlearn_localizer-concepts,2026-07-12 21h56.07.033648 +0200,,226.31311410000126,228.0177408999989,228.0177408999989,228.88352690000102,,,,59.934539495083506,225.54815999999846,226.31311410000126,,,225.53819360000125,226.29382989999795,,,house\house_06.jpg,,,,,,,,,,,,,,,,,,,,0,1,None,226.31311410000126,,,,,None,,0,,,2025.2.4,,,226.29719040000055,228.00031060000038,,,226.31023716666485,227.2770739999978,,,36,0,2026-07-12_21:59:52.568794,36,37,,None,,None,36,36,0,36,,,,,,house,Maison,Haus,
231.33744690000094,232.45394719999967,1.11,,,1,232.454013999999,232.45404889999918,,,ball,1,,,,,,,,,,,,,,,,,,,,,,,,,,None,,,r,2026-07-12_21h56.05.978,TSRlearn_localizer-concepts,2026-07-12 21h56.07.033648 +0200,,229.65547739999965,231.35009939999873,231.35009939999873,232.51463239999794,,,,59.934539495083506,228.88352690000102,229.65547739999965,,,228.84522300000026,229.63541310000073,,,ball\ball_32.jpg,,,,,,,,,,,,,,,,,,,,1,1,None,229.65547739999965,,,,,right,,0,,,2025.2.4,,,229.63842889999796,231.33737889999975,,,229.65185926666553,230.54771179999807,,,37,0,2026-07-12_21:59:55.904161,37,38,,None,,None,37,37,0,37,,,,,,bread,Pain,Brot,
234.94980130000113,235.80554409999968,0.85,,,1,235.80563489999986,235.80568370000037,,,chair,4,,,,,,,,,,,,,,,,,,,,,,,,,,None,,,None,2026-07-12_21h56.05.978,TSRlearn_localizer-concepts,2026-07-12 21h56.07.033648 +0200,,233.26367989999926,234.9659642000006,234.9659642000006,235.843104399999,,,,59.934539495083506,232.51463239999794,233.26367989999926,,,232.49423079999906,233.2479714000001,,,chair\chair_48.jpg,,,,,,,,,,,,,,,,,,,,0,1,None,233.26367989999926,,,,,None,,0,,,2025.2.4,,,233.25087559999884,234.94974490000095,,,233.26448526666744,234.19851769999877,,,38,0,2026-07-12_21:59:59.535266,38,39,,None,,None,38,38,0,38,,,,,,chair,Chaise,Stuhl,
238.30793099999937,239.3957311999984,1.09,,,1,239.39581619999808,239.39585850000003,,,dog,5,,,,,,,,,,,,,,,,,,,,,,,,,,None,,,None,2026-07-12_21h56.05.978,TSRlearn_localizer-concepts,2026-07-12 21h56.07.033648 +0200,,236.6010524000012,238.32066599999962,238.32066599999962,239.46530239999993,,,,59.934539495083506,235.843104399999,236.6010524000012,,,235.82264099999884,236.5839589999996,,,dog\dog_11.jpg,,,,,,,,,,,,,,,,,,,,0,1,None,236.6010524000012,,,,,None,,0,,,2025.2.4,,,236.5868464999985,238.3078534999986,,,236.60046666666702,237.52017839999826,,,39,0,2026-07-12_22:00:02.863738,39,40,,None,,None,39,39,0,39,,,,,,dog,Chien,Hund,
241.93819359999907,242.72254539999994,0.77,,,1,242.7226215999981,242.72266630000013,,,hand,8,,,,,,,,,,,,,,,,,,,,,,,,,,None,,,None,2026-07-12_21h56.05.978,TSRlearn_localizer-concepts,2026-07-12 21h56.07.033648 +0200,,240.230096700001,241.95447950000016,241.95447950000016,242.77907409999898,,,,59.934539495083506,239.46530239999993,240.230096700001,,,239.43886589999966,240.21042930000112,,,hand\hand_47.jpg,,,,,,,,,,,,,,,,,,,,0,1,None,240.230096700001,,,,,None,,0,,,2025.2.4,,,240.21310869999797,241.93811930000084,,,240.22687976666592,241.07069079999928,,,40,0,2026-07-12_22:00:06.485936,40,41,,None,,None,40,40,0,40,,,,,,hand,Main,Hand,
245.23468909999792,246.33118100000138,1.09,,,1,246.33125709999877,246.33129980000012,,,bread,3,,,,,,,,,,,,,,,,,,,,,,,,,,None,,,None,2026-07-12_21h56.05.978,TSRlearn_localizer-concepts,2026-07-12 21h56.07.033648 +0200,,243.53985720000128,245.24912549999863,245.24912549999863,246.38773260000016,,,,59.934539495083506,242.77907409999898,243.53985720000128,,,242.75943069999994,243.5237562000002,,,bread\bread_45.jpg,,,,,,,,,,,,,,,,,,,,0,1,None,243.53985720000128,,,,,None,,0,,,2025.2.4,,,243.52648520000002,245.2346096000001,,,243.54021976666652,244.42410449999807,,,41,0,2026-07-12_22:00:09.799708,41,42,,None,,None,41,41,0,41,,,,,,bread,Pain,Brot,
248.83419289999802,250.0005401999988,1.15,,,1,250.00061199999982,250.00064389999898,,,jacket,10,,,,,,,,,,,,,,,,,,,,,,,,,,None,,,None,2026-07-12_21h56.05.978,TSRlearn_localizer-concepts,2026-07-12 21h56.07.033648 +0200,,247.14378650000072,248.85180190000028,248.85180190000028,250.0373213999992,,,,59.934539495083506,246.38773260000016,247.14378650000072,,,246.36614030000055,247.1271087999994,,,jacket\jacket_35.jpg,,,,,,,,,,,,,,,,,,,,0,1,None,247.14378650000072,,,,,None,,0,,,2025.2.4,,,247.130148799999,248.83413139999902,,,247.1435676666663,248.11762960000124,,,42,0,2026-07-12_22:00:13.408366,42,43,,None,,None,42,42,0,42,,,,,,jacket,Veste,Jacke,
252.49755670000013,253.67105439999796,1.17,,,1,253.67112930000076,253.67117140000119,,,chair,4,,,,,,,,,,,,,,,,,,,,,,,,,,None,,,r,2026-07-12_21h56.05.978,TSRlearn_localizer-concepts,2026-07-12 21h56.07.033648 +0200,,250.79577100000097,252.51392670000132,252.51392670000132,253.71835089999877,,,,59.934539495083506,250.0373213999992,250.79577100000097,,,250.01877439999953,250.78262729999915,,,chair\chair_33.jpg,,,,,,,,,,,,,,,,,,,,1,1,None,250.79577100000097,,,,,left,,0,,,2025.2.4,,,250.78571499999816,252.49748909999835,,,250.79906386666724,251.81317320000016,,,43,0,2026-07-12_22:00:17.057955,43,44,,None,,None,43,43,0,43,,,,,,bicycle,Vélo,Fahrrad,
256.1864887999982,257.2415857999986,1.04,,,1,257.241661,257.2417026000003,,,house,9,,,,,,,,,,,,,,,,,,,,,,,,,,None,,,None,2026-07-12_21h56.05.978,TSRlearn_localizer-concepts,2026-07-12 21h56.07.033648 +0200,,254.49003150000135,256.2033812000009,256.2033812000009,257.2852273999997,,,,59.934539495083506,253.71835089999877,254.49003150000135,,,253.6993153000003,254.4669959999992,,,house\house_19.jpg,,,,,,,,,,,,,,,,,,,,0,1,None,254.49003150000135,,,,,None,,0,,,2025.2.4,,,254.47003269999914,256.1864182999998,,,254.48347496666636,255.45630470000106,,,44,0,2026-07-12_22:00:20.738985,44,45,,None,,None,44,44,0,44,,,,,,house,Maison,Haus,
259.75337579999905,260.8211889000013,1.06,,,1,260.8212554999991,260.82129390000046,,,hand,8,,,,,,,,,,,,,,,,,,,,,,,,,,None,,,None,2026-07-12_21h56.05.978,TSRlearn_localizer-concepts,2026-07-12 21h56.07.033648 +0200,,258.0386999000002,259.76986810000017,259.76986810000017,260.8699831999984,,,,59.934539495083506,257.2852273999997,258.0386999000002,,,257.26672189999954,258.0238920999982,,,hand\hand_03.jpg,,,,,,,,,,,,,,,,,,,,0,1,None,258.0386999000002,,,,,None,,0,,,2025.2.4,,,258.0266077999986,259.75330699999904,,,258.040322766665,258.885801299999,,,45,0,2026-07-12_22:00:24.305861,45,46,,None,,None,45,45,0,45,,,,,,hand,Main,Hand,
263.3240619999997,264.33062489999793,1,,,1,264.3306893000008,264.3307234999993,,,house,9,,,,,,,,,,,,,,,,,,,,,,,,,,None,,,None,2026-07-12_21h56.05.978,TSRlearn_localizer-concepts,2026-07-12 21h56.07.033648 +0200,,261.6309919999985,263.34727790000034,263.34727790000034,264.365675699999,,,,59.934539495083506,260.8699831999984,261.6309919999985,,,260.85688540000046,261.61047699999835,,,house\house_48.jpg,,,,,,,,,,,,,,,,,,,,0,1,None,261.6309919999985,,,,,None,,0,,,2025.2.4,,,261.6136497999978,263.3239934999983,,,261.6269391666649,262.59949380000035,,,46,0,2026-07-12_22:00:27.890617,46,47,,None,,None,46,46,0,46,,,,,,house,Maison,Haus,
266.8339472999978,268.09468259999994,1.25,,,1,268.0947715000002,268.0948074000007,,,hammer,7,,,,,,,,,,,,,,,,,,,,,,,,,,None,,,None,2026-07-12_21h56.05.978,TSRlearn_localizer-concepts,2026-07-12 21h56.07.033648 +0200,,265.12440720000086,266.8495746000008,266.8495746000008,268.14138230000026,,,,59.934539495083506,264.365675699999,265.12440720000086,,,264.34568389999913,265.1076820999988,,,hammer\hammer_32.jpg,,,,,,,,,,,,,,,,,,,,0,1,None,265.12440720000086,,,,,None,,0,,,2025.2.4,,,265.1106957000011,266.8338689000011,,,265.12416996666457,266.0730193999989,,,47,0,2026-07-12_22:00:31.386310,47,48,,None,,None,47,47,0,47,,,,,,hammer,Marteau,Hammer,
270.6005335000009,271.5544831999978,0.95,,,1,271.55455639999855,271.55459699999847,,,jacket,10,,,,,,,,,,,,,,,,,,,,,,,,,,None,,,None,2026-07-12_21h56.05.978,TSRlearn_localizer-concepts,2026-07-12 21h56.07.033648 +0200,,268.89953460000106,270.6152288999983,270.6152288999983,271.617229200001,,,,59.934539495083506,268.14138230000026,268.89953460000106,,,268.1226300999988,268.88123509999787,,,jacket\jacket_40.jpg,,,,,,,,,,,,,,,,,,,,0,1,None,268.89953460000106,,,,,None,,0,,,2025.2.4,,,268.88397540000005,270.60046109999894,,,268.8977812666674,269.8613065999998,,,48,0,2026-07-12_22:00:35.162016,48,49,,None,,None,48,48,0,48,,,,,,jacket,Veste,Jacke,
274.0834705999987,275.17285790000096,1.08,,,1,275.17293829999835,540.281803599999,275.18395529999907,290.195850600001,hand,8,,,,,,,,,,,,,,,,,,,,,,,,,0.2481751000013901,g,249.84988320000048,290.1790488000006,None,2026-07-12_21h56.05.978,TSRlearn_localizer-concepts,2026-07-12 21h56.07.033648 +0200,,272.3748549999982,274.1065094000005,274.1065094000005,275.18395529999907,,,,59.934539495083506,271.617229200001,272.3748549999982,,,271.5944006999998,272.35354670000015,,,hand\hand_04.jpg,290.1790488000006,,,,,,,,,,,,,,,,,,,0,1,None,272.3748549999982,,,,,None,,0,275.18395529999907,290.195850600001,2025.2.4,,,272.35691659999793,274.08340509999834,,,272.36988336666786,273.23416219999854,,,49,0,2026-07-12_22:00:38.637863,49,50,0.2481751000013901,g,249.84988320000048,None,49,49,0,49,,,,,,hand,Main,Hand,
542.7838902000003,543.6871265000009,0.9,,,2,543.6911914000011,543.691240600001,,,bread,3,,,,,,,,,,,,,,,,,,,,,,,,,,None,,,None,2026-07-12_21h56.05.978,TSRlearn_localizer-concepts,2026-07-12 21h56.07.033648 +0200,,541.0926865000001,542.802491800001,542.802491800001,543.729222599999,,,,59.934539495083506,540.3422628000008,541.0926865000001,,,540.3206877999983,541.0766700999993,,,bread\bread_08.jpg,,,,,,,,,,,,,,,,,,,,0,1,None,541.0926865000001,,,,,None,,0,,,2025.2.4,,,541.0793775999991,542.7838133000005,,,541.0931846666647,541.9779495000002,,,50,0,2026-07-12_22:05:07.362897,50,1,,None,,None,50,50,0,50,,,,,,bread,Pain,Brot,
546.1697328000009,547.3863309999979,1.22,,,2,547.3864080999992,547.3864491999993,,,bicycle,2,,,,,,,,,,,,,,,,,,,,,,,,,,None,,,None,2026-07-12_21h56.05.978,TSRlearn_localizer-concepts,2026-07-12 21h56.07.033648 +0200,,544.4868810000007,546.1836417999984,546.1836417999984,547.4216167000013,,,,59.934539495083506,543.729222599999,544.4868810000007,,,543.708625700001,544.4675069000004,,,bicycle\bicycle_10.jpg,,,,,,,,,,,,,,,,,,,,0,1,None,544.4868810000007,,,,,None,,0,,,2025.2.4,,,544.4706504999995,546.1696468000009,,,544.483954866668,545.501209099999,,,51,0,2026-07-12_22:05:10.749856,51,2,,None,,None,51,51,0,51,,,,,,bicycle,Vélo,Fahrrad,
549.8834683999994,550.9175909000005,1.02,,,2,550.9176803999981,550.9177204999978,,,ball,1,,,,,,,,,,,,,,,,,,,,,,,,,,None,,,None,2026-07-12_21h56.05.978,TSRlearn_localizer-concepts,2026-07-12 21h56.07.033648 +0200,,548.1814424000004,549.9003297999989,549.9003297999989,550.9493426000008,,,,59.934539495083506,547.4216167000013,548.1814424000004,,,547.4094374999986,548.1663976999989,,,ball\ball_26.jpg,,,,,,,,,,,,,,,,,,,,0,1,None,548.1814424000004,,,,,None,,0,,,2025.2.4,,,548.1694203999978,549.8833656999996,,,548.1828800666665,549.1327921000011,,,52,0,2026-07-12_22:05:14.442251,52,3,,None,,None,52,52,0,52,,,,,,ball,Ballon,Ball,
553.409286099999,554.5896205999998,1.17,,,2,554.5896890000004,554.589724999998,,,flower,6,,,,,,,,,,,,,,,,,,,,,,,,,,None,,,None,2026-07-12_21h56.05.978,TSRlearn_localizer-concepts,2026-07-12 21h56.07.033648 +0200,,551.7105282000011,553.4257986999983,553.4257986999983,554.6229055000003,,,,59.934539495083506,550.9493426000008,551.7105282000011,,,550.9402828999991,551.6915502000011,,,flower\flower_36.jpg,,,,,,,,,,,,,,,,,,,,0,1,None,551.7105282000011,,,,,None,,0,,,2025.2.4,,,551.6943724999983,553.4092167999988,,,551.7079847666648,552.6724633000013,,,53,0,2026-07-12_22:05:17.969976,53,4,,None,,None,53,53,0,53,,,,,,flower,Fleur,Blume,
557.0793156,558.0072287000003,0.92,,,2,558.0072947999979,558.0073331999993,,,bicycle,2,,,,,,,,,,,,,,,,,,,,,,,,,,None,,,None,2026-07-12_21h56.05.978,TSRlearn_localizer-concepts,2026-07-12 21h56.07.033648 +0200,,555.3814848000002,557.0955031000012,557.0955031000012,558.0567950000004,,,,59.934539495083506,554.6229055000003,555.3814848000002,,,554.6054162,555.361299199998,,,bicycle\bicycle_11.jpg,,,,,,,,,,,,,,,,,,,,0,1,None,555.3814848000002,,,,,None,,0,,,2025.2.4,,,555.364635599999,557.0792441000012,,,555.3777133666665,556.3948840999983,,,54,0,2026-07-12_22:05:21.643539,54,5,,None,,None,54,54,0,54,,,,,,bicycle,Vélo,Fahrrad,
560.5156767999979,561.7498314000004,1.23,,,2,561.7499071999991,561.7499485999979,,,hammer,7,,,,,,,,,,,,,,,,,,,,,,,,,,None,,,None,2026-07-12_21h56.05.978,TSRlearn_localizer-concepts,2026-07-12 21h56.07.033648 +0200,,558.8083564999979,560.532019899998,560.532019899998,561.795601400001,,,,59.934539495083506,558.0567950000004,558.8083564999979,,,558.0459561999996,558.7907344999985,,,hammer\hammer_17.jpg,,,,,,,,,,,,,,,,,,,,0,1,None,558.8083564999979,,,,,None,,0,,,2025.2.4,,,558.7936327999996,560.5156074000006,,,558.8072148666654,559.7582355000013,,,55,0,2026-07-12_22:05:25.077429,55,6,,None,,None,55,55,0,55,,,,,,hammer,Marteau,Hammer,
564.254559500001,565.3862921,1.12,,,2,565.3863669999992,565.3864080999992,,,chair,4,,,,,,,,,,,,,,,,,,,,,,,,,,None,,,None,2026-07-12_21h56.05.978,TSRlearn_localizer-concepts,2026-07-12 21h56.07.033648 +0200,,562.550780900001,564.2671098999999,564.2671098999999,565.4287579999982,,,,59.934539495083506,561.795601400001,562.550780900001,,,561.7784167999998,562.5312615000003,,,chair\chair_34.jpg,,,,,,,,,,,,,,,,,,,,0,1,None,562.550780900001,,,,,None,,0,,,2025.2.4,,,562.5343869999997,564.2544817999988,,,562.5477002666669,563.4939616999982,,,56,0,2026-07-12_22:05:28.816235,56,7,,None,,None,56,56,0,56,,,,,,chair,Chaise,Stuhl,
567.8829330000008,568.7665821999981,0.87,,,2,568.7666566999978,568.7666996999978,,,flower,6,,,,,,,,,,,,,,,,,,,,,,,,,,None,,,r,2026-07-12_21h56.05.978,TSRlearn_localizer-concepts,2026-07-12 21h56.07.033648 +0200,,566.186837199999,567.898919700001,567.898919700001,568.8372648000004,,,,59.934539495083506,565.4287579999982,566.186837199999,,,565.4114317999993,566.1683843999999,,,flower\flower_28.jpg,,,,,,,,,,,,,,,,,,,,1,1,None,566.186837199999,,,,,left,,0,,,2025.2.4,,,566.1710972000001,567.8828584000003,,,566.1849186666661,567.114338899999,,,57,0,2026-07-12_22:05:32.449392,57,8,,None,,None,57,57,0,57,,,,,,ball,Ballon,Ball,
571.2771169999978,572.1213635999993,0.84,,,2,572.1214436000009,572.1214856000006,,,hammer,7,,,,,,,,,,,,,,,,,,,,,,,,,,None,,,None,2026-07-12_21h56.05.978,TSRlearn_localizer-concepts,2026-07-12 21h56.07.033648 +0200,,569.5878699999994,571.2887908000012,571.2887908000012,572.2121565999987,,,,59.934539495083506,568.8372648000004,569.5878699999994,,,568.8256058000006,569.5704423999996,,,hammer\hammer_14.jpg,,,,,,,,,,,,,,,,,,,,0,1,None,569.5878699999994,,,,,None,,0,,,2025.2.4,,,569.5736218999991,571.2770419000008,,,569.5868187666676,570.5309214999979,,,58,0,2026-07-12_22:05:35.857899,58,9,,None,,None,58,58,0,58,,,,,,hammer,Marteau,Hammer,
574.6714528000011,575.5049518999986,0.82,,,2,575.5050392999983,575.5050871999993,,,ball,1,,,,,,,,,,,,,,,,,,,,,,,,,,None,,,None,2026-07-12_21h56.05.978,TSRlearn_localizer-concepts,2026-07-12 21h56.07.033648 +0200,,572.974194800001,574.6877189000006,574.6877189000006,575.5320423000012,,,,59.934539495083506,572.2121565999987,572.974194800001,,,572.1777782999998,572.9564645999999,,,ball\ball_17.jpg,,,,,,,,,,,,,,,,,,,,0,1,None,572.974194800001,,,,,None,,0,,,2025.2.4,,,572.9593784999997,574.6713913999993,,,572.9729597666667,573.9266977999978,,,59,0,2026-07-12_22:05:39.232790,59,10,,None,,None,59,59,0,59,,,,,,ball,Ballon,Ball,
577.9925626000004,579.2150249000006,1.22,,,2,579.2151765999988,579.2152394000004,,,chair,4,,,,,,,,,,,,,,,,,,,,,,,,,,None,,,r,2026-07-12_21h56.05.978,TSRlearn_localizer-concepts,2026-07-12 21h56.07.033648 +0200,,576.2932786999991,578.0114724999985,578.0114724999985,579.2556359000009,,,,59.934539495083506,575.5320423000012,576.2932786999991,,,575.520463599998,576.2743485999999,,,chair\chair_23.jpg,,,,,,,,,,,,,,,,,,,,1,1,None,576.2932786999991,,,,,right,,0,,,2025.2.4,,,576.2768577999996,577.992497700001,,,576.2908577666678,577.1902577000001,,,60,0,2026-07-12_22:05:42.552676,60,11,,None,,None,60,60,0,60,,,,,,bread,Pain,Brot,
581.7003938999987,582.8319650000012,1.12,,,2,582.8320497999994,582.832093699999,,,dog,5,,,,,,,,,,,,,,,,,,,,,,,,,,None,,,None,2026-07-12_21h56.05.978,TSRlearn_localizer-concepts,2026-07-12 21h56.07.033648 +0200,,580.0159700000004,581.7165796000008,581.7165796000008,582.8698203999993,,,,59.934539495083506,579.2556359000009,580.0159700000004,,,579.2356093999988,579.9954952999979,,,dog\dog_29.jpg,,,,,,,,,,,,,,,,,,,,0,1,None,580.0159700000004,,,,,None,,0,,,2025.2.4,,,579.9985803999989,581.7003183999987,,,580.0119384666652,580.9325425999996,,,61,0,2026-07-12_22:05:46.276270,61,12,,None,,None,61,61,0,61,,,,,,dog,Chien,Hund,
585.3142544000002,586.197654399999,0.88,,,2,586.1977394999994,586.1977784999981,,,bicycle,2,,,,,,,,,,,,,,,,,,,,,,,,,,None,,,None,2026-07-12_21h56.05.978,TSRlearn_localizer-concepts,2026-07-12 21h56.07.033648 +0200,,583.6285352000014,585.3310997999979,585.3310997999979,586.2388700999982,,,,59.934539495083506,582.8698203999993,583.6285352000014,,,582.8514384000009,583.6121605999979,,,bicycle\bicycle_32.jpg,,,,,,,,,,,,,,,,,,,,0,1,None,583.6285352000014,,,,,None,,0,,,2025.2.4,,,583.6153076999981,585.3141785000007,,,583.6286604666677,584.6467821000006,,,62,0,2026-07-12_22:05:49.890454,62,13,,None,,None,62,62,0,62,,,,,,bicycle,Vélo,Fahrrad,
588.7226693000011,589.6843268999983,0.96,,,2,589.6844386000012,589.6844870999994,,,flower,6,,,,,,,,,,,,,,,,,,,,,,,,,,None,,,None,2026-07-12_21h56.05.978,TSRlearn_localizer-concepts,2026-07-12 21h56.07.033648 +0200,,587.0032934999981,588.7392106999978,588.7392106999978,589.7762771999987,,,,59.934539495083506,586.2388700999982,587.0032934999981,,,586.2278727999983,586.9871251000004,,,flower\flower_33.jpg,,,,,,,,,,,,,,,,,,,,0,1,None,587.0032934999981,,,,,None,,0,,,2025.2.4,,,586.9898252999992,588.7226114000005,,,587.0035712666652,587.9702971000006,,,63,0,2026-07-12_22:05:53.259504,63,14,,None,,None,63,63,0,63,,,,,,flower,Fleur,Blume,
592.2360903999979,593.0371290000003,0.8,,,2,593.0372051999984,593.0372424999987,,,bread,3,,,,,,,,,,,,,,,,,,,,,,,,,,None,,,None,2026-07-12_21h56.05.978,TSRlearn_localizer-concepts,2026-07-12 21h56.07.033648 +0200,,590.5431290999986,592.253575499999,592.253575499999,593.0923664000002,,,,59.934539495083506,589.7762771999987,590.5431290999986,,,589.744593899999,590.5242399999988,,,bread\bread_15.jpg,,,,,,,,,,,,,,,,,,,,0,1,None,590.5431290999986,,,,,None,,0,,,2025.2.4,,,590.527285199998,592.2360187000013,,,590.5407353666671,591.4392167000005,,,64,0,2026-07-12_22:05:56.796911,64,15,,None,,None,64,64,0,64,,,,,,bread,Pain,Brot,
595.5392514000014,596.6296320000001,1.09,,,2,596.6297086999984,596.629751299999,,,hand,8,,,,,,,,,,,,,,,,,,,,,,,,,,None,,,None,2026-07-12_21h56.05.978,TSRlearn_localizer-concepts,2026-07-12 21h56.07.033648 +0200,,593.8543654999994,595.5560727000011,595.5560727000011,596.6832359,,,,59.934539495083506,593.0923664000002,593.8543654999994,,,593.0787119999986,593.8373740999996,,,hand\hand_20.jpg,,,,,,,,,,,,,,,,,,,,0,1,None,593.8543654999994,,,,,None,,0,,,2025.2.4,,,593.8402533000008,595.5391694999998,,,593.8538696666658,594.7053492999985,,,65,0,2026-07-12_22:06:00.113000,65,16,,None,,None,65,65,0,65,,,,,,hand,Main,Hand,
599.1483945,600.2324790999992,1.07,,,2,600.2325477000013,600.2325835999982,,,bread,3,,,,,,,,,,,,,,,,,,,,,,,,,,None,,,None,2026-07-12_21h56.05.978,TSRlearn_localizer-concepts,2026-07-12 21h56.07.033648 +0200,,597.442452299998,599.1646163000005,599.1646163000005,600.306764500001,,,,59.934539495083506,596.6832359,597.442452299998,,,596.6633447999993,597.427827200001,,,bread\bread_31.jpg,,,,,,,,,,,,,,,,,,,,0,1,None,597.442452299998,,,,,None,,0,,,2025.2.4,,,597.4303990000008,599.1483238000001,,,597.444309566665,598.3473392999986,,,66,0,2026-07-12_22:06:03.703870,66,17,,None,,None,66,66,0,66,,,,,,bread,Pain,Brot,
602.7622878000002,603.9506985999978,1.18,,,2,603.9507731999984,603.9508137000012,,,jacket,10,,,,,,,,,,,,,,,,,,,,,,,,,,None,,,None,2026-07-12_21h56.05.978,TSRlearn_localizer-concepts,2026-07-12 21h56.07.033648 +0200,,601.0607342000003,602.7786416999988,602.7786416999988,604.0185080999981,,,,59.934539495083506,600.306764500001,601.0607342000003,,,600.2834148000002,601.0441533999983,,,jacket\jacket_46.jpg,,,,,,,,,,,,,,,,,,,,0,1,None,601.0607342000003,,,,,None,,0,,,2025.2.4,,,601.0471628999985,602.7622230999987,,,601.0606683666667,602.0272607999977,,,67,0,2026-07-12_22:06:07.327399,67,18,,None,,None,67,67,0,67,,,,,,jacket,Veste,Jacke,
606.4569780999991,607.4743760999991,1.02,,,2,607.4744561000007,607.4744986000005,,,hand,8,,,,,,,,,,,,,,,,,,,,,,,,,,None,,,None,2026-07-12_21h56.05.978,TSRlearn_localizer-concepts,2026-07-12 21h56.07.033648 +0200,,604.7715805999978,606.4692945999996,606.4692945999996,607.5285666999989,,,,59.934539495083506,604.0185080999981,604.7715805999978,,,603.9968860000008,604.7520598999981,,,hand\hand_25.jpg,,,,,,,,,,,,,,,,,,,,0,1,None,604.7715805999978,,,,,None,,0,,,2025.2.4,,,604.7550536999988,606.4569096999985,,,604.7684748666654,605.6203556,,,68,0,2026-07-12_22:06:11.039142,68,19,,None,,None,68,68,0,68,,,,,,hand,Main,Hand,
609.9743081999986,610.9528347999985,0.97,,,2,610.9529139000006,610.9529607000004,,,jacket,10,,,,,,,,,,,,,,,,,,,,,,,,,,None,,,None,2026-07-12_21h56.05.978,TSRlearn_localizer-concepts,2026-07-12 21h56.07.033648 +0200,,608.2912609999985,609.9905728999984,609.9905728999984,610.9931293000009,,,,59.934539495083506,607.5285666999989,608.2912609999985,,,607.5079760000008,608.2726483000006,,,jacket\jacket_19.jpg,,,,,,,,,,,,,,,,,,,,0,1,None,608.2912609999985,,,,,None,,0,,,2025.2.4,,,608.2754932999997,609.9742316999982,,,608.2891263666645,609.2590598999996,,,69,0,2026-07-12_22:06:14.549201,69,20,,None,,None,69,69,0,69,,,,,,jacket,Veste,Jacke,
613.4438487000007,614.2740062999983,0.82,,,2,614.2740859000005,614.2741333999984,,,ball,1,,,,,,,,,,,,,,,,,,,,,,,,,,None,,,None,2026-07-12_21h56.05.978,TSRlearn_localizer-concepts,2026-07-12 21h56.07.033648 +0200,,611.7537340999988,613.4602651999994,613.4602651999994,614.2997953999984,,,,59.934539495083506,610.9931293000009,611.7537340999988,,,610.9798518999996,611.7364094000004,,,ball\ball_13.jpg,,,,,,,,,,,,,,,,,,,,0,1,None,611.7537340999988,,,,,None,,0,,,2025.2.4,,,611.7393598999988,613.4437816999998,,,611.7529141666676,612.685749799999,,,70,0,2026-07-12_22:06:18.013763,70,21,,None,,None,70,70,0,70,,,,,,ball,Ballon,Ball,
616.763474899999,617.7305965999985,0.95,,,2,617.7306634999986,617.7306994999999,,,hammer,7,,,,,,,,,,,,,,,,,,,,,,,,,,None,,,r,2026-07-12_21h56.05.978,TSRlearn_localizer-concepts,2026-07-12 21h56.07.033648 +0200,,615.0645764000001,616.7798259999981,616.7798259999981,617.7919203999991,,,,59.934539495083506,614.2997953999984,615.0645764000001,,,614.2888717999995,615.0453052999983,,,hammer\hammer_16.jpg,,,,,,,,,,,,,,,,,,,,1,1,None,615.0645764000001,,,,,right,,0,,,2025.2.4,,,615.0482752999997,616.7634126999983,,,615.0617592666679,616.0237672000003,,,71,0,2026-07-12_22:06:21.320429,71,22,,None,,None,71,71,0,71,,,,,,flower,Fleur,Blume,
620.2457839999988,621.4114769000007,1.16,,,2,621.4115528000002,621.4115998999987,,,house,9,,,,,,,,,,,,,,,,,,,,,,,,,,None,,,None,2026-07-12_21h56.05.978,TSRlearn_localizer-concepts,2026-07-12 21h56.07.033648 +0200,,618.5501713999984,620.2625103999999,620.2625103999999,621.4471850000009,,,,59.934539495083506,617.7919203999991,618.5501713999984,,,617.7703211000007,618.5315250999993,,,house\house_46.jpg,,,,,,,,,,,,,,,,,,,,0,1,None,618.5501713999984,,,,,None,,0,,,2025.2.4,,,618.5343324999994,620.2457184999985,,,618.5479774666676,619.5088551999979,,,72,0,2026-07-12_22:06:24.812554,72,23,,None,,None,72,72,0,72,,,,,,house,Maison,Haus,
623.9194399999978,624.6696136999999,0.75,,,2,624.6696900999996,624.6697318000006,,,chair,4,,,,,,,,,,,,,,,,,,,,,,,,,,None,,,None,2026-07-12_21h56.05.978,TSRlearn_localizer-concepts,2026-07-12 21h56.07.033648 +0200,,622.2111417999986,623.9357717999992,623.9357717999992,624.7224620999987,,,,59.934539495083506,621.4471850000009,622.2111417999986,,,621.427410799999,622.1946447999981,,,chair\chair_18.jpg,,,,,,,,,,,,,,,,,,,,0,1,None,622.2111417999986,,,,,None,,0,,,2025.2.4,,,622.1975691000007,623.9193683000012,,,622.211147066668,623.1629638000013,,,73,0,2026-07-12_22:06:28.467819,73,24,,None,,None,73,73,0,73,,,,,,chair,Chaise,Stuhl,
627.1891164000008,628.1164643000011,0.91,,,2,628.1165419999998,628.1165886999988,,,dog,5,,,,,,,,,,,,,,,,,,,,,,,,,,None,,,None,2026-07-12_21h56.05.978,TSRlearn_localizer-concepts,2026-07-12 21h56.07.033648 +0200,,625.4899495999998,627.2075187999981,627.2075187999981,628.1567551999979,,,,59.934539495083506,624.7224620999987,625.4899495999998,,,624.7045527000009,625.4706396000001,,,dog\dog_16.jpg,,,,,,,,,,,,,,,,,,,,0,1,None,625.4899495999998,,,,,None,,0,,,2025.2.4,,,625.4736459999986,627.1890200999987,,,625.4871112666663,626.4043740999987,,,74,0,2026-07-12_22:06:31.743096,74,25,,None,,None,74,74,0,74,,,,,,dog,Chien,Hund,
630.6043976000001,631.7592170999997,1.14,,,2,631.759296799999,631.7593383999993,,,bread,3,,,,,,,,,,,,,,,,,,,,,,,,,,None,,,None,2026-07-12_21h56.05.978,TSRlearn_localizer-concepts,2026-07-12 21h56.07.033648 +0200,,628.9168452999984,630.6230178000005,630.6230178000005,631.8003562000013,,,,59.934539495083506,628.1567551999979,628.9168452999984,,,628.1464986999999,628.9009803000008,,,bread\bread_23.jpg,,,,,,,,,,,,,,,,,,,,0,1,None,628.9168452999984,,,,,None,,0,,,2025.2.4,,,628.903538300001,630.6043293000002,,,628.9175209666648,629.8199142000012,,,75,0,2026-07-12_22:06:35.177389,75,26,,None,,None,75,75,0,75,,,,,,bread,Pain,Brot,
634.2638774999978,635.2289810000002,0.96,,,2,635.2290553999992,635.229095499999,,,house,9,,,,,,,,,,,,,,,,,,,,,,,,,,None,,,None,2026-07-12_21h56.05.978,TSRlearn_localizer-concepts,2026-07-12 21h56.07.033648 +0200,,632.5615625999999,634.2773086999987,634.2773086999987,635.2933712999984,,,,59.934539495083506,631.8003562000013,632.5615625999999,,,631.7797543999986,632.5424182999996,,,house\house_36.jpg,,,,,,,,,,,,,,,,,,,,0,1,None,632.5615625999999,,,,,None,,0,,,2025.2.4,,,632.545390700001,634.2638092999987,,,632.5588818666658,633.5214455999994,,,76,0,2026-07-12_22:06:38.820990,76,27,,None,,None,76,76,0,76,,,,,,house,Maison,Haus,
637.7425383000009,638.9417547000012,1.19,,,2,638.9418388999984,638.9418908000007,,,hand,8,,,,,,,,,,,,,,,,,,,,,,,,,,None,,,None,2026-07-12_21h56.05.978,TSRlearn_localizer-concepts,2026-07-12 21h56.07.033648 +0200,,636.0479730000006,637.7573712000012,637.7573712000012,638.9937047999993,,,,59.934539495083506,635.2933712999984,636.0479730000006,,,635.2717989999983,636.0294801999989,,,hand\hand_05.jpg,,,,,,,,,,,,,,,,,,,,0,1,None,636.0479730000006,,,,,None,,0,,,2025.2.4,,,636.0322730999978,637.742467600001,,,636.045995466666,636.8901122999996,,,77,0,2026-07-12_22:06:42.314005,77,28,,None,,None,77,77,0,77,,,,,,hand,Main,Hand,
641.432116,642.2683408999983,0.83,,,2,642.2684188999992,642.2684637999992,,,flower,6,,,,,,,,,,,,,,,,,,,,,,,,,,None,,,None,2026-07-12_21h56.05.978,TSRlearn_localizer-concepts,2026-07-12 21h56.07.033648 +0200,,639.7435458,641.4480531000008,641.4480531000008,642.3305951000002,,,,59.934539495083506,638.9937047999993,639.7435458,,,638.9822467999984,639.7266741999993,,,flower\flower_41.jpg,,,,,,,,,,,,,,,,,,,,0,1,None,639.7435458,,,,,None,,0,,,2025.2.4,,,639.729510000001,641.4320111999987,,,639.7432197666678,640.7158840999982,,,78,0,2026-07-12_22:06:46.014339,78,29,,None,,None,78,78,0,78,,,,,,flower,Fleur,Blume,
644.7878244999993,645.7926712000008,1,,,2,645.7927988999982,645.7928699000004,,,hammer,7,,,,,,,,,,,,,,,,,,,,,,,,,,None,,,None,2026-07-12_21h56.05.978,TSRlearn_localizer-concepts,2026-07-12 21h56.07.033648 +0200,,643.0914540000012,644.8034966000014,644.8034966000014,645.8418714,,,,59.934539495083506,642.3305951000002,643.0914540000012,,,642.3115962999982,643.0717159999986,,,hammer\hammer_42.jpg,,,,,,,,,,,,,,,,,,,,0,1,None,643.0914540000012,,,,,None,,0,,,2025.2.4,,,643.0751074,644.7877516999979,,,643.0880227666678,644.0490754999992,,,79,0,2026-07-12_22:06:49.351229,79,30,,None,,None,79,79,0,79,,,,,,hammer,Marteau,Hammer,
648.2898671000003,,1.08,,,2,,,,,dog,5,,,,,,,,,,,,,,,,,,,,,,,,,,,,,None,,,,,646.5993448000008,648.3062828000002,648.3062828000002,,,,,,645.8418714,646.5993448000008,,,645.8173648000011,646.5828481999997,,,dog\dog_34.jpg,,,,,,,,,,,,,,,,,,,,0,1,,646.5993448000008,,,,,None,,,,,,,,646.5860705000014,648.2898012000005,,,646.5993249666647,647.5229060999991,,,80,0,2026-07-12_22:06:52.862505,80,31,,,,None,80,80,0,80,,,,,,dog,Chien,Hund,
