ITI.started,ITI.stopped,ITI_length,ITI_prc.started,ITI_prc.stopped,block,break_3.started,break_3.stopped,breaks_instruction.started,breaks_instruction.stopped,concept,concept_num,concept_num_word,continue_button.duration,continue_button.keys,continue_button.rt,continue_button.started,continue_button_3.duration,continue_button_3.keys,continue_button_3.rt,continue_button_3.started,continue_button_4.duration,continue_button_4.keys,continue_button_4.rt,continue_button_4.started,continue_button_6.duration,continue_button_6.keys,continue_button_6.rt,continue_button_6.started,continue_button_7.duration,continue_button_7.keys,continue_button_7.rt,continue_button_7.started,continue_button_8.duration,continue_button_8.keys,continue_button_8.rt,continue_button_8.started,continue_button_9.duration,continue_button_9.keys,continue_button_9.rt,continue_button_9.started,continue_button_break.duration,continue_button_break.keys,continue_button_break.rt,continue_button_break.started,correct_response,date,exemplar_num,expName,expStart,expVersion,fix_cross.started,fix_cross.stopped,fix_cross_2.started,fix_cross_2.stopped,fix_cross_2_prc.started,fix_cross_2_prc.stopped,fix_cross_prc.started,frameRate,image.started,image.stopped,image_prc.started,image_prc.stopped,image_pres.started,image_pres.stopped,image_pres_prc.started,image_pres_prc.stopped,image_shown,instruction_continuebreak.started,instruction_end.started,instruction_part1.started,instruction_part2.started,instruction_part3.started,instruction_part4.started,instruction_startexp.started,instruction_startexp_2.started,instructions.started,instructions.stopped,instructions_02.started,instructions_02.stopped,instructions_03.started,instructions_03.stopped,instructions_04.started,instructions_04.stopped,instructions_end.started,instructions_end.stopped,instructions_startexp.started,instructions_startexp.stopped,instructions_startexp_02.started,instructions_startexp_02.stopped,is_mismatch,is_prompt,key_resp.duration,key_resp.keys,key_resp.rt,key_resp.started,key_resp_prc.keys,key_resp_prc.started,key_resp_prc.stopped,match_idx,nonmatch_pres_side,notes,participant,progress_bar_breaks.started,progress_bar_breaks.stopped,psychopyVersion,settings.started,settings.stopped,sound_pres.started,sound_pres.stopped,sound_pres_prc.started,sound_pres_prc.stopped,spoken_word.started,spoken_word.stopped,spoken_word_prc.started,spoken_word_prc.stopped,thisN,thisRepN,thisRow.t,thisTrialN,trial_in_block,trials.continue_button_break.duration,trials.continue_button_break.keys,trials.continue_button_break.rt,trials.key_resp.duration,trials.key_resp.keys,trials.key_resp.rt,trials.thisIndex,trials.thisN,trials.thisRepN,trials.thisTrialN,trials_practice.key_resp_prc.keys,trials_practice.thisIndex,trials_practice.thisN,trials_practice.thisRepN,trials_practice.thisTrialN,word_shown_english,word_shown_french,word_shown_german,
,,,,,,,,,,,,,,,,,,,,,,,,,,,,,,,,,,,,,,,,,,,,,,2026-07-21_13h18.24.447,,TSRlearn_localizer-concepts,2026-07-21 13h18.25.567133 +0200,,,,,,,,,59.864502684314424,,,,,,,,,,,,,,,,,,,,,,,,,,,,,,,,,,,,,,,,,,,,0,,,2025.2.4,0.011688700004015118,0.01175639999564737,,,,,,,,,,,,,,,,,,,,,,,,,,,,,,,,
,,,,,,,,,,,,,0.15379890002077445,g,4.183764699962921,0.5216626999899745,,,,,,,,,,,,,,,,,,,,,,,,,,,,,,2026-07-21_13h18.24.447,,TSRlearn_localizer-concepts,2026-07-21 13h18.25.567133 +0200,,,,,,,,,59.864502684314424,,,,,,,,,,,,0.05098080000607297,,,,,,0.03948580002179369,4.874802200007252,,,,,,,,,,,,,,,,,,,,,,,,,0,,,2025.2.4,,,,,,,,,,,,,,,,,,,,,,,,,,,,,,,,,,
,,,,,,,,,,,,,,,,,0.20420869998633862,r,3.394871700031217,5.389377699990291,,,,,,,,,,,,,,,,,,,,,,,,,,2026-07-21_13h18.24.447,,TSRlearn_localizer-concepts,2026-07-21 13h18.25.567133 +0200,,,,,,,,,59.864502684314424,,,,,,,,,,,,,4.889973099983763,,,,,,,4.879677799995989,9.002503500028979,,,,,,,,,,,,,,,,,,,,,,,0,,,2025.2.4,,,,,,,,,,,,,,,,,,,,,,,,,,,,,,,,,,
,,,,,,,,,,,,,,,,,,,,,0.21841309999581426,g,18.37442499998724,9.518255000002682,,,,,,,,,,,,,,,,,,,,,,2026-07-21_13h18.24.447,,TSRlearn_localizer-concepts,2026-07-21 13h18.25.567133 +0200,,,,,,,,,59.864502684314424,,,,,,,,,,,,,,9.023139600001741,,,,,,,,9.014328100020066,28.11162179999519,,,,,,,,,,,,,,,,,,,,,0,,,2025.2.4,,,,,,,,,,,,,,,,,,,,,,,,,,,,,,,,,,
,,,,,,,,,,,,,,,,,,,,,,,,,,,,,,,,,,,,,0.1986386000062339,g,6.0819954999606125,28.611450000025798,,,,,,2026-07-21_13h18.24.447,,TSRlearn_localizer-concepts,2026-07-21 13h18.25.567133 +0200,,,,,,,,,59.864502684314424,,,,,,,,,,,,,,,28.127992400026415,,,,,,,,,28.119723899988458,34.89331569999922,,,,,,,,,,,,,,,,,,,0,,,2025.2.4,,,,,,,,,,,,,,,,,,,,,,,,,,,,,,,,,,
,,0.75,37.4752800000133,38.224840499984566,,,,,,,,,,,,,,,,,,,,,,,,,,,,,,,,,,,,,,,,,y,2026-07-21_13h18.24.447,,TSRlearn_localizer-concepts,2026-07-21 13h18.25.567133 +0200,,,,,,37.49169160000747,38.25582660001237,35.76117140002316,59.864502684314424,,,35.00353210000321,35.76117140002316,,,34.986380200018175,35.74317830003565,anchor.jpg,,,,,,,,,,,,,,,,,,,,,,,,,,,,,None,35.76117140002316,37.27511390001746,1,right,,0,,,2025.2.4,,,,,35.75476899999194,37.47522580000805,,,35.759646166701955,36.325394799991045,0,0,2026-07-21_13:19:00.560167,0,,,,,,,,,,,,None,0,0,0,0,anchor,ancre,Anker,
,,0.89,40.69203179999022,41.59093589999247,,,,,,,,,,,,,,,,,,,,,,,,,,,,,,,,,,,,,,,,,r,2026-07-21_13h18.24.447,,TSRlearn_localizer-concepts,2026-07-21 13h18.25.567133 +0200,,,,,,40.70889760000864,41.62525939999614,39.00958830001764,59.864502684314424,,,38.25582660001237,39.00958830001764,,,38.24865650001448,38.991457400028594,ant.jpg,,,,,,,,,,,,,,,,,,,,,,,,,,,,,None,39.00958830001764,40.525036500010174,1,left,,0,,,2025.2.4,,,,,39.00455750001129,40.69196870003361,,,39.00799886667325,39.758231799991336,1,0,2026-07-21_13:19:03.812462,1,,,,,,,,,,,,None,1,1,0,1,ant,fourmi,Ameise,
,,0.85,44.090574700036086,44.939650500018615,,,,,,,,,,,,,,,,,,,,,,,,,,,,,,,,,,,,,,,,,y,2026-07-21_13h18.24.447,,TSRlearn_localizer-concepts,2026-07-21 13h18.25.567133 +0200,,,,,,44.10680519999005,44.97558800003026,42.39095660002204,59.864502684314424,,,41.62525939999614,42.39095660002204,,,41.618699999991804,42.37355519999983,axe.jpg,,,,,,,,,,,,,,,,,,,,,,,,,,,,,None,42.39095660002204,43.906367200019304,0,left,,0,,,2025.2.4,,,,,42.37775410001632,44.09051629999885,,,42.390020566647095,42.9403473000275,2,0,2026-07-21_13:19:07.181894,2,,,,,,,,,,,,None,2,2,0,2,horse,cheval,Pferd,
,,1.01,47.43878929998027,48.45512589998543,,,,,,,,,,,,,,,,,,,,,,,,,,,,,,,,,,,,,,,,,y,2026-07-21_13h18.24.447,,TSRlearn_localizer-concepts,2026-07-21 13h18.25.567133 +0200,,,,,,47.45515400002478,48.492798699997365,45.73925500002224,59.864502684314424,,,44.97558800003026,45.73925500002224,,,44.9687839000253,45.722656500001904,bus.jpg,,,,,,,,,,,,,,,,,,,,,,,,,,,,,None,45.73925500002224,47.23857340001268,1,right,,0,,,2025.2.4,,,,,45.73246209998615,47.43873860000167,,,45.739105466698916,46.22228330001235,3,0,2026-07-21_13:19:10.532223,3,,,,,,,,,,,,None,3,3,0,3,bus,bus,Bus,
,,1.04,50.97100680001313,52.020524099993054,,,,,,,,,,,,,,,,,,,,,,,,,,,,,,,,,,,,,,,,,r,2026-07-21_13h18.24.447,,TSRlearn_localizer-concepts,2026-07-21 13h18.25.567133 +0200,,,,,,50.987251800019294,52.05870480003068,49.256160699995235,59.864502684314424,,,48.492798699997365,49.256160699995235,,,48.485533600032795,49.23827299999539,ball.jpg,,,,,,,,,,,,,,,,,,,,,,,,,,,,,None,49.256160699995235,50.77082059998065,0,right,,0,,,2025.2.4,,,,,49.242312300018966,50.97094209998613,,,49.25481466669977,49.887964399997145,4,0,2026-07-21_13:19:14.049434,4,,,,,,,,,,,,None,4,4,0,4,face,visage,Gesicht,
,,0.99,54.52065220003715,55.51963609998347,,,,,,,,,,,,,,,,,,,,,,,,,,,,,,,,,,,,,,,,,y,2026-07-21_13h18.24.447,,TSRlearn_localizer-concepts,2026-07-21 13h18.25.567133 +0200,,,,,,54.537180199986324,55.554295299982186,52.82007610000437,59.864502684314424,,,52.05870480003068,52.82007610000437,,,52.05227859999286,52.803828400035854,banana.jpg,,,,,,,,,,,,,,,,,,,,,,,,,,,,,None,52.82007610000437,54.320254100020975,1,right,,0,,,2025.2.4,,,,,52.810798200021964,54.52058389998274,,,52.82036246668237,53.48650440003257,5,0,2026-07-21_13:19:17.615340,5,,,,,,,,,,,,None,5,5,0,5,banana,banane,Banane,
,,0.79,58.03539620002266,58.834906100004446,,,,,,,,,,,,,,,,,,,,,,,,,,,,,,,,,,,,,,,,,r,2026-07-21_13h18.24.447,,TSRlearn_localizer-concepts,2026-07-21 13h18.25.567133 +0200,,,,,,58.05234840000048,58.868444000021555,56.319373600010294,59.864502684314424,,,55.554295299982186,56.319373600010294,,,55.546567199984565,56.30308859999059,glasses.jpg,,,,,,,,,,,,,,,,,,,,,,,,,,,,,None,56.319373600010294,57.81914839998353,1,left,,0,,,2025.2.4,,,,,56.31183930003317,58.03533560002688,,,56.31957076664936,56.83566029998474,6,0,2026-07-21_13:19:21.110930,6,,,,,,,,,,,,None,6,6,0,6,glasses,lunettes,Brille,
,,0.77,61.31799549999414,62.087307600013446,,,,,,,,,,,,,,,,,,,,,,,,,,,,,,,,,,,,,,,,,y,2026-07-21_13h18.24.447,,TSRlearn_localizer-concepts,2026-07-21 13h18.25.567133 +0200,,,,,,61.334518900024705,62.13226590002887,59.61935629998334,59.864502684314424,,,58.868444000021555,59.61935629998334,,,58.861528799985535,59.603873800020665,basket.jpg,,,,,,,,,,,,,,,,,,,,,,,,,,,,,None,59.61935629998334,61.12161480000941,1,right,,0,,,2025.2.4,,,,,59.612091100018006,61.317944600014016,,,59.6203459666615,60.1178571000346,7,0,2026-07-21_13:19:24.425079,7,,,,,,,,,,,,None,7,7,0,7,basket,panier,Korb,
,,1.23,64.58421270002145,65.8167664000066,,,,,,,,,,,,,,,,,,,,,,,,,,,,,,,,,,,,,,,,,r,2026-07-21_13h18.24.447,,TSRlearn_localizer-concepts,2026-07-21 13h18.25.567133 +0200,,,,,,64.60117209999589,65.85370660002809,62.88421679998282,59.864502684314424,,,62.13226590002887,62.88421679998282,,,62.12360190000618,62.867266200017184,bear.jpg,,,,,,,,,,,,,,,,,,,,,,,,,,,,,None,62.88421679998282,64.38362560002133,0,right,,0,,,2025.2.4,,,,,62.8715891999891,64.58416020002915,,,62.883806066649655,63.4339777000132,8,0,2026-07-21_13:19:27.688901,8,,,,,,,,,,,,None,8,8,0,8,milk,lait,Milch,
,,1.1,68.32152920000954,69.42219610000029,,,,,,,,,,,,,,,,,,,,,,,,,,,,,,,,,,,,,,,,,y,2026-07-21_13h18.24.447,,TSRlearn_localizer-concepts,2026-07-21 13h18.25.567133 +0200,,,,,,68.33784390002256,69.48028000001796,66.61905229999684,59.864502684314424,,,65.85370660002809,66.61905229999684,,,65.84681020001881,66.59947469999315,belt.jpg,,,,,,,,,,,,,,,,,,,,,,,,,,,,,None,66.61905229999684,68.12134010001319,1,left,,0,,,2025.2.4,,,,,66.6060651000007,68.32147530000657,,,66.61596226669305,67.20374470000388,9,0,2026-07-21_13:19:31.410342,9,,,,,,,,,,,,None,9,9,0,9,belt,ceinture,Gürtel,
,,1.25,71.94838419998996,73.1976594000007,,,,,,,,,,,,,,,,,,,,,,,,,,,,,,,,,,,,,,,,,y,2026-07-21_13h18.24.447,,TSRlearn_localizer-concepts,2026-07-21 13h18.25.567133 +0200,,,,,,71.96492120000767,73.29867019999074,70.23140620003687,59.864502684314424,,,69.48028000001796,70.23140620003687,,,69.46269070002018,70.21544930001255,bike.jpg,,,,,,,,,,,,,,,,,,,,,,,,,,,,,None,70.23140620003687,71.7315117000253,1,left,,0,,,2025.2.4,,,,,70.22214329999406,71.94831589999376,,,70.23196766665593,70.93112870003097,10,0,2026-07-21_13:19:35.036915,10,,,,,,,,,,,,None,10,10,0,10,bicycle,vélo,Fahrrad,
,,,,,,,,,,,,,,,,,,,,,,,,,0.06755259999772534,r,107.78596910001943,73.6977052000002,,,,,,,,,,,,,,,,,,2026-07-21_13h18.24.447,,TSRlearn_localizer-concepts,2026-07-21 13h18.25.567133 +0200,,,,,,,,,59.864502684314424,,,,,,,,,,,,,,,,73.29867019999074,,,,,,,,,,,,73.2938888000208,181.563670500007,,,,,,,,,,,,,,,0,,,2025.2.4,,,,,,,,,,,,,,,,,,,,,,,,,,,,,,,,,,
,,,,,,,,,,,,,,,,,,,,,,,,,,,,,,,,,0.20673739997437224,b,7.49031169997761,182.06341190001694,,,,,,,,,,2026-07-21_13h18.24.447,,TSRlearn_localizer-concepts,2026-07-21 13h18.25.567133 +0200,,,,,,,,,59.864502684314424,,,,,,,,,,,,,,,,,181.57963590003783,,,,,,,,,,,,,181.57387690001633,189.76093240000773,,,,,,,,,,,,,0,,,2025.2.4,,,,,,,,,,,,,,,,,,,,,,,,,,,,,,,,,,
192.3938156000222,193.32704090001062,0.92,,,1,193.33385950000957,193.33390929998131,,,bread,3,3,,,,,,,,,,,,,,,,,,,,,,,,,,,,,,None,,,None,2026-07-21_13h18.24.447,19,TSRlearn_localizer-concepts,2026-07-21 13h18.25.567133 +0200,,190.69340580003336,192.41016470000613,192.41016470000613,193.36591059999773,,,,59.864502684314424,189.93845620000502,190.69340580003336,,,189.92919320001965,190.6776865000138,,,bread\bread_19.jpg,,,,,,,,,,,,,,,,,,,,,,,0,1,,None,,190.69340580003336,,,,,None,,0,,,2025.2.4,,,190.68598760000896,192.39373910002178,,,190.6941787666913,191.62743649998447,,,0,0,2026-07-21_13:21:35.495091,0,1,,None,,,None,,0,0,0,0,,,,,,bread,Pain,Brot,
195.8423807999934,197.0270408000215,1.18,,,1,197.0271086000139,197.027140900027,,,chair,4,4,,,,,,,,,,,,,,,,,,,,,,,,,,,,,,None,,,None,2026-07-21_13h18.24.447,27,TSRlearn_localizer-concepts,2026-07-21 13h18.25.567133 +0200,,194.13031470001442,195.85888640000485,195.85888640000485,197.09165469999425,,,,59.864502684314424,193.36591059999773,194.13031470001442,,,193.3561248999904,194.11409119999735,,,chair\chair_27.jpg,,,,,,,,,,,,,,,,,,,,,,,0,1,,None,,194.13031470001442,,,,,None,,0,,,2025.2.4,,,194.1183541000355,195.84229980001692,,,194.13053446665097,194.6763859000057,,,1,0,2026-07-21_13:21:38.922545,1,2,,None,,,None,,1,1,0,1,,,,,,chair,Chaise,Stuhl,
199.5579435999971,200.3410423999885,0.78,,,1,200.3411172000342,200.34115769999335,,,flower,6,6,,,,,,,,,,,,,,,,,,,,,,,,,,,,,,None,,,None,2026-07-21_13h18.24.447,47,TSRlearn_localizer-concepts,2026-07-21 13h18.25.567133 +0200,,197.8411907000118,199.57411049999064,199.57411049999064,200.3890865999856,,,,59.864502684314424,197.09165469999425,197.8411907000118,,,197.07419050001772,197.82517339999322,,,flower\flower_47.jpg,,,,,,,,,,,,,,,,,,,,,,,0,1,,None,,197.8411907000118,,,,,None,,0,,,2025.2.4,,,197.82844359998126,199.5578711000271,,,197.84167976666166,198.72458109998843,,,2,0,2026-07-21_13:21:42.648290,2,3,,None,,,None,,2,2,0,2,,,,,,flower,Fleur,Blume,
202.84037689998513,204.07299299997976,1.23,,,1,204.07307610003045,204.07313919998705,,,hammer,7,7,,,,,,,,,,,,,,,,,,,,,,,,,,,,,,None,,,None,2026-07-21_13h18.24.447,42,TSRlearn_localizer-concepts,2026-07-21 13h18.25.567133 +0200,,201.1453164999839,202.86020920000738,202.86020920000738,204.10153670003638,,,,59.864502684314424,200.3890865999856,201.1453164999839,,,200.3782024999964,201.1283836000366,,,hammer\hammer_42.jpg,,,,,,,,,,,,,,,,,,,,,,,0,1,,None,,201.1453164999839,,,,,None,,0,,,2025.2.4,,,201.13273369998205,202.84029429999646,,,201.1448233666636,201.66130149998935,,,3,0,2026-07-21_13:21:45.945721,3,4,,None,,,None,,3,3,0,3,,,,,,hammer,Marteau,Hammer,
206.55576890002703,207.78852729999926,1.23,,,1,207.78860189998522,207.78864250000333,,,jacket,10,3,,,,,,,,,,,,,,,,,,,,,,,,,,,,,,None,,,r,2026-07-21_13h18.24.447,38,TSRlearn_localizer-concepts,2026-07-21 13h18.25.567133 +0200,,204.85557240003254,206.57190490001813,206.57190490001813,207.8468845000025,,,,59.864502684314424,204.10153670003638,204.85557240003254,,,204.09291310003027,204.83981470001163,,,jacket\jacket_38.jpg,,,,,,,,,,,,,,,,,,,,,,,1,1,,None,,204.85557240003254,,,,,left,,0,,,2025.2.4,,,204.84269760001916,206.55570090003312,,,204.8562963666666,205.77267289999872,,,4,0,2026-07-21_13:21:49.658172,4,5,,None,,,None,,4,4,0,4,,,,,,bread,Pain,Brot,
210.32671140000457,211.404325600015,1.07,,,1,211.40440270002,211.4044431000366,,,ball,1,1,,,,,,,,,,,,,,,,,,,,,,,,,,,,,,None,,,None,2026-07-21_13h18.24.447,45,TSRlearn_localizer-concepts,2026-07-21 13h18.25.567133 +0200,,208.60638020001352,210.34205289999954,210.34205289999954,211.4498242000118,,,,59.864502684314424,207.8468845000025,208.60638020001352,,,207.83238640002673,208.58858650003094,,,ball\ball_45.jpg,,,,,,,,,,,,,,,,,,,,,,,0,1,,None,,208.60638020001352,,,,,None,,0,,,2025.2.4,,,208.59257269999944,210.32662680000067,,,208.60504306666942,209.37523350003175,,,5,0,2026-07-21_13:21:53.403519,5,6,,None,,,None,,5,5,0,5,,,,,,ball,Ballon,Ball,
213.91997450002236,214.90298200002871,0.98,,,1,214.90308120002737,214.9031216999865,,,house,9,9,,,,,,,,,,,,,,,,,,,,,,,,,,,,,,None,,,None,2026-07-21_13h18.24.447,17,TSRlearn_localizer-concepts,2026-07-21 13h18.25.567133 +0200,,212.2127341000014,213.936683500011,213.936683500011,215.02548270003172,,,,59.864502684314424,211.4498242000118,212.2127341000014,,,211.4341234000167,212.1880012000329,,,house\house_17.jpg,,,,,,,,,,,,,,,,,,,,,,,0,1,,None,,212.2127341000014,,,,,None,,0,,,2025.2.4,,,212.1989484000369,213.91989459999604,,,212.20443526667466,212.75701450003544,,,6,0,2026-07-21_13:21:57.006459,6,7,,None,,,None,,6,6,0,6,,,,,,house,Maison,Haus,
217.4860187000013,218.43586000002688,0.95,,,1,218.43593869998585,218.43598240002757,,,ball,1,1,,,,,,,,,,,,,,,,,,,,,,,,,,,,,,None,,,None,2026-07-21_13h18.24.447,7,TSRlearn_localizer-concepts,2026-07-21 13h18.25.567133 +0200,,215.78647380002076,217.50212499999907,217.50212499999907,218.4805062999949,,,,59.864502684314424,215.02548270003172,215.78647380002076,,,214.98169630003395,215.77042690000962,,,ball\ball_07.jpg,,,,,,,,,,,,,,,,,,,,,,,0,1,,None,,215.78647380002076,,,,,None,,0,,,2025.2.4,,,215.77372330002254,217.48595380003098,,,215.78688666667247,216.5524345000158,,,7,0,2026-07-21_13:22:00.582118,7,8,,None,,,None,,7,7,0,7,,,,,,ball,Ballon,Ball,
220.9524972999934,222.1174418000155,1.16,,,1,222.11751770001138,222.1175532999914,,,hammer,7,7,,,,,,,,,,,,,,,,,,,,,,,,,,,,,,None,,,None,2026-07-21_13h18.24.447,34,TSRlearn_localizer-concepts,2026-07-21 13h18.25.567133 +0200,,219.23945910000475,220.96745160000864,220.96745160000864,222.1742830000003,,,,59.864502684314424,218.4805062999949,219.23945910000475,,,218.46634210000047,219.22272100002738,,,hammer\hammer_34.jpg,,,,,,,,,,,,,,,,,,,,,,,0,1,,None,,219.23945910000475,,,,,None,,0,,,2025.2.4,,,219.225806500006,220.95241959998384,,,219.23918706668,219.76781500002835,,,8,0,2026-07-21_13:22:04.037141,8,9,,None,,,None,,8,8,0,8,,,,,,hammer,Marteau,Hammer,
224.63370790000772,225.88348459999543,1.25,,,1,225.8835509000346,225.88358520000475,,,hand,8,8,,,,,,,,,,,,,,,,,,,,,,,,,,,,,,None,,,None,2026-07-21_13h18.24.447,5,TSRlearn_localizer-concepts,2026-07-21 13h18.25.567133 +0200,,222.93337560002692,224.64981570001692,224.64981570001692,225.9361157999956,,,,59.864502684314424,222.1742830000003,222.93337560002692,,,222.16354079998564,222.9173059000168,,,hand\hand_05.jpg,,,,,,,,,,,,,,,,,,,,,,,0,1,,None,,222.93337560002692,,,,,None,,0,,,2025.2.4,,,222.9253197000362,224.63364010001533,,,222.93381256668752,223.416512100026,,,9,0,2026-07-21_13:22:07.730918,9,10,,None,,,None,,9,9,0,9,,,,,,hand,Main,Hand,
228.40008360001957,229.33291629998712,0.92,,,1,229.33300240000244,229.33305000001565,,,bicycle,2,2,,,,,,,,,,,,,,,,,,,,,,,,,,,,,,None,,,None,2026-07-21_13h18.24.447,45,TSRlearn_localizer-concepts,2026-07-21 13h18.25.567133 +0200,,226.70325610000873,228.41617079998832,228.41617079998832,229.36023600003682,,,,59.864502684314424,225.9361157999956,226.70325610000873,,,225.92743229999905,226.68359810003312,,,bicycle\bicycle_45.jpg,,,,,,,,,,,,,,,,,,,,,,,0,1,,None,,226.70325610000873,,,,,None,,0,,,2025.2.4,,,226.68584490002831,228.39999830001034,,,226.7000238666699,227.4178437999799,,,10,0,2026-07-21_13:22:11.492751,10,11,,None,,,None,,10,10,0,10,,,,,,bicycle,Vélo,Fahrrad,
231.81442409998272,232.61425310000777,0.79,,,1,232.61433389998274,232.6143754000077,,,house,9,9,,,,,,,,,,,,,,,,,,,,,,,,,,,,,,None,,,None,2026-07-21_13h18.24.447,7,TSRlearn_localizer-concepts,2026-07-21 13h18.25.567133 +0200,,230.1249828999862,231.83063919999404,231.83063919999404,232.6390051000053,,,,59.864502684314424,229.36023600003682,230.1249828999862,,,229.35105450003175,230.0990165999974,,,house\house_07.jpg,,,,,,,,,,,,,,,,,,,,,,,0,1,,None,,230.1249828999862,,,,,None,,0,,,2025.2.4,,,230.10364739998477,231.81435450003482,,,230.11546196666703,230.6474343999871,,,11,0,2026-07-21_13:22:14.916871,11,12,,None,,,None,,11,11,0,11,,,,,,house,Maison,Haus,
235.10096549999435,236.30178660003003,1.19,,,1,236.3018630000297,236.3019008000265,,,dog,5,5,,,,,,,,,,,,,,,,,,,,,,,,,,,,,,None,,,None,2026-07-21_13h18.24.447,39,TSRlearn_localizer-concepts,2026-07-21 13h18.25.567133 +0200,,233.40158499998506,235.11694600002375,235.11694600002375,236.34468620002735,,,,59.864502684314424,232.6390051000053,233.40158499998506,,,232.63135099998908,233.3831247999915,,,dog\dog_39.jpg,,,,,,,,,,,,,,,,,,,,,,,0,1,,None,,233.40158499998506,,,,,None,,0,,,2025.2.4,,,233.3871110000182,235.1008528000093,,,233.39955176669562,233.90089190000435,,,12,0,2026-07-21_13:22:18.195640,12,13,,None,,,None,,12,12,0,12,,,,,,dog,Chien,Hund,
238.79665889998432,239.66158020001603,0.86,,,1,239.66165800002636,239.66169939999236,,,hand,8,8,,,,,,,,,,,,,,,,,,,,,,,,,,,,,,None,,,None,2026-07-21_13h18.24.447,18,TSRlearn_localizer-concepts,2026-07-21 13h18.25.567133 +0200,,237.100121400028,238.81255309999688,238.81255309999688,239.6891905000084,,,,59.864502684314424,236.34468620002735,237.100121400028,,,236.33236310002394,237.0835354999872,,,hand\hand_18.jpg,,,,,,,,,,,,,,,,,,,,,,,0,1,,None,,237.100121400028,,,,,None,,0,,,2025.2.4,,,237.0868653000216,238.79658620001283,,,237.09997836669598,237.58440910000354,,,13,0,2026-07-21_13:22:21.901321,13,14,,None,,,None,,13,13,0,13,,,,,,hand,Main,Hand,
242.14885350002442,243.24829160002992,1.09,,,1,243.24836880003568,243.24840839998797,,,dog,5,5,,,,,,,,,,,,,,,,,,,,,,,,,,,,,,None,,,None,2026-07-21_13h18.24.447,30,TSRlearn_localizer-concepts,2026-07-21 13h18.25.567133 +0200,,240.4450103000272,242.16601480002282,242.16601480002282,243.28259389998857,,,,59.864502684314424,239.6891905000084,240.4450103000272,,,239.68259390001185,240.42799400002696,,,dog\dog_30.jpg,,,,,,,,,,,,,,,,,,,,,,,0,1,,None,,240.4450103000272,,,,,None,,0,,,2025.2.4,,,240.43137720000232,242.1487912000157,,,240.44453616667695,240.9279203999904,,,14,0,2026-07-21_13:22:25.245825,14,15,,None,,,None,,14,14,0,14,,,,,,dog,Chien,Hund,
245.74954079999588,246.5832341000205,0.82,,,1,246.5833064999897,246.5833399000112,,,hammer,7,8,,,,,,,,,,,,,,,,,,,,,,,,,,,,,,None,,,r,2026-07-21_13h18.24.447,7,TSRlearn_localizer-concepts,2026-07-21 13h18.25.567133 +0200,,244.05647489998955,245.76608070003567,245.76608070003567,246.6461447000038,,,,59.864502684314424,243.28259389998857,244.05647489998955,,,243.2693137000315,244.0341603999841,,,hammer\hammer_07.jpg,,,,,,,,,,,,,,,,,,,,,,,1,1,,None,,244.05647489998955,,,,,left,,0,,,2025.2.4,,,244.03813090000767,245.74947670003166,,,244.05054846668307,244.5505223000073,,,15,0,2026-07-21_13:22:28.839229,15,16,,None,,,None,,15,15,0,15,,,,,,hand,Main,Hand,
249.10873020003783,250.00626910000574,0.89,,,1,250.0063977999962,250.00645580003038,,,chair,4,4,,,,,,,,,,,,,,,,,,,,,,,,,,,,,,None,,,None,2026-07-21_13h18.24.447,45,TSRlearn_localizer-concepts,2026-07-21 13h18.25.567133 +0200,,247.40009120001923,249.1251850000117,249.1251850000117,250.07987110002432,,,,59.864502684314424,246.6461447000038,247.40009120001923,,,246.62883579998743,247.38192750001326,,,chair\chair_45.jpg,,,,,,,,,,,,,,,,,,,,,,,0,1,,None,,247.40009120001923,,,,,None,,0,,,2025.2.4,,,247.386061600002,249.10866000002716,,,247.39825026668066,247.95931740000378,,,16,0,2026-07-21_13:22:32.202780,16,17,,None,,,None,,16,16,0,16,,,,,,chair,Chaise,Stuhl,
252.52586779999547,253.76166800002102,1.23,,,1,253.76175170001807,253.76179230003618,,,jacket,10,10,,,,,,,,,,,,,,,,,,,,,,,,,,,,,,None,,,None,2026-07-21_13h18.24.447,17,TSRlearn_localizer-concepts,2026-07-21 13h18.25.567133 +0200,,250.84307569998782,252.5431047999882,252.5431047999882,253.7914247000008,,,,59.864502684314424,250.07987110002432,250.84307569998782,,,250.04671170003712,250.81759470002726,,,jacket\jacket_17.jpg,,,,,,,,,,,,,,,,,,,,,,,0,1,,None,,250.84307569998782,,,,,None,,0,,,2025.2.4,,,250.82823019998614,252.52578920003725,,,250.8340120666583,251.37986159999855,,,17,0,2026-07-21_13:22:35.636506,17,18,,None,,,None,,17,17,0,17,,,,,,jacket,Veste,Jacke,
256.2399902000325,257.1900164000108,0.95,,,1,257.1901080000098,257.1901496000355,,,chair,4,4,,,,,,,,,,,,,,,,,,,,,,,,,,,,,,None,,,None,2026-07-21_13h18.24.447,6,TSRlearn_localizer-concepts,2026-07-21 13h18.25.567133 +0200,,254.5446480999817,256.2565303000156,256.2565303000156,257.2214762000367,,,,59.864502684314424,253.7914247000008,254.5446480999817,,,253.77811850002035,254.52593750000233,,,chair\chair_06.jpg,,,,,,,,,,,,,,,,,,,,,,,0,1,,None,,254.5446480999817,,,,,None,,0,,,2025.2.4,,,254.52971520001302,256.2399276000215,,,254.54239996668574,255.0901329999906,,,18,0,2026-07-21_13:22:39.348060,18,19,,None,,,None,,18,18,0,18,,,,,,chair,Chaise,Stuhl,
259.67814199998975,260.62236610002583,0.94,,,1,260.62246929999674,260.6225304999971,,,flower,6,6,,,,,,,,,,,,,,,,,,,,,,,,,,,,,,None,,,None,2026-07-21_13h18.24.447,14,TSRlearn_localizer-concepts,2026-07-21 13h18.25.567133 +0200,,257.97245480003767,259.69389350002166,259.69389350002166,260.6910357000306,,,,59.864502684314424,257.2214762000367,257.97245480003767,,,257.2144893000368,257.95618560002185,,,flower\flower_14.jpg,,,,,,,,,,,,,,,,,,,,,,,0,1,,None,,257.97245480003767,,,,,None,,0,,,2025.2.4,,,257.9589391000336,259.67807399999583,,,257.9726701666989,258.8740326000261,,,19,0,2026-07-21_13:22:42.778111,19,20,,None,,,None,,19,19,0,19,,,,,,flower,Fleur,Blume,
263.14027249999344,264.270875599992,1.12,,,1,264.2709451999981,264.2709871000261,,,bread,3,3,,,,,,,,,,,,,,,,,,,,,,,,,,,,,,None,,,None,2026-07-21_13h18.24.447,48,TSRlearn_localizer-concepts,2026-07-21 13h18.25.567133 +0200,,261.44228319998365,263.159622200008,263.159622200008,264.30535949999467,,,,59.864502684314424,260.6910357000306,261.44228319998365,,,260.668717499997,261.4249940000009,,,bread\bread_48.jpg,,,,,,,,,,,,,,,,,,,,,,,0,1,,None,,261.44228319998365,,,,,None,,0,,,2025.2.4,,,261.4281543000252,263.1401724999887,,,261.4414403666781,262.36362760001794,,,20,0,2026-07-21_13:22:46.247671,20,21,,None,,,None,,20,20,0,20,,,,,,bread,Pain,Brot,
266.7748733999906,267.70887460000813,0.92,,,1,267.7089475999819,267.7089831000194,,,bicycle,2,2,,,,,,,,,,,,,,,,,,,,,,,,,,,,,,None,,,None,2026-07-21_13h18.24.447,46,TSRlearn_localizer-concepts,2026-07-21 13h18.25.567133 +0200,,265.0705731000053,266.7917328000185,266.7917328000185,267.84159110003384,,,,59.864502684314424,264.30535949999467,265.0705731000053,,,264.2955826999969,265.0540127999848,,,bicycle\bicycle_46.jpg,,,,,,,,,,,,,,,,,,,,,,,0,1,,None,,265.0705731000053,,,,,None,,0,,,2025.2.4,,,265.05611860001227,266.7748031000374,,,265.0704826666663,265.77029670000775,,,21,0,2026-07-21_13:22:49.861995,21,22,,None,,,None,,21,21,0,21,,,,,,bicycle,Vélo,Fahrrad,
270.2899805000052,271.455797600036,1.16,,,1,271.4558764999965,271.4559282999835,,,ball,1,1,,,,,,,,,,,,,,,,,,,,,,,,,,,,,,None,,,None,2026-07-21_13h18.24.447,5,TSRlearn_localizer-concepts,2026-07-21 13h18.25.567133 +0200,,268.59018569998443,270.306138999993,270.306138999993,271.50685250002425,,,,59.864502684314424,267.84159110003384,268.59018569998443,,,267.7969512999989,268.5746128000319,,,ball\ball_05.jpg,,,,,,,,,,,,,,,,,,,,,,,0,1,,None,,268.59018569998443,,,,,None,,0,,,2025.2.4,,,268.5779436000157,270.28990889998386,,,268.5910560666855,269.3744192000013,,,22,0,2026-07-21_13:22:53.398226,22,23,,None,,,None,,22,22,0,22,,,,,,ball,Ballon,Ball,
273.9675839000265,274.9171700000297,0.95,,,1,274.9172574999975,274.9173091999837,,,jacket,10,10,,,,,,,,,,,,,,,,,,,,,,,,,,,,,,None,,,None,2026-07-21_13h18.24.447,35,TSRlearn_localizer-concepts,2026-07-21 13h18.25.567133 +0200,,272.267685000028,273.98392159998184,273.98392159998184,274.9446093000006,,,,59.864502684314424,271.50685250002425,272.267685000028,,,271.49057030002587,272.2519842000329,,,jacket\jacket_35.jpg,,,,,,,,,,,,,,,,,,,,,,,0,1,,None,,272.267685000028,,,,,None,,0,,,2025.2.4,,,272.2567566999933,273.9675198000041,,,272.26844596665273,272.8176235000137,,,23,0,2026-07-21_13:22:57.063487,23,24,,None,,,None,,23,23,0,23,,,,,,jacket,Veste,Jacke,
277.39929480000865,278.5051174000255,1.09,,,1,278.5052157000173,278.5052640000358,,,hand,8,2,,,,,,,,,,,,,,,,,,,,,,,,,,,,,,None,,,r,2026-07-21_13h18.24.447,38,TSRlearn_localizer-concepts,2026-07-21 13h18.25.567133 +0200,,275.70571680000285,277.4217260000296,277.4217260000296,278.5808662000345,,,,59.864502684314424,274.9446093000006,275.70571680000285,,,274.9366997000179,275.6857275000075,,,hand\hand_38.jpg,,,,,,,,,,,,,,,,,,,,,,,1,1,,None,,275.70571680000285,,,,,left,,0,,,2025.2.4,,,275.68793369998457,277.3991591000231,,,275.70217316667936,276.41722300002584,,,24,0,2026-07-21_13:23:00.501244,24,25,,None,,,None,,24,24,0,24,,,,,,bicycle,Vélo,Fahrrad,
281.05585940001765,281.98268539999845,0.91,,,1,281.9827604999882,281.9827998999972,,,flower,6,6,,,,,,,,,,,,,,,,,,,,,,,,,,,,,,None,,,None,2026-07-21_13h18.24.447,40,TSRlearn_localizer-concepts,2026-07-21 13h18.25.567133 +0200,,279.33842139999615,281.08198560000164,281.08198560000164,282.02147859998513,,,,59.864502684314424,278.5808662000345,279.33842139999615,,,278.55643530003726,279.32175940001616,,,flower\flower_40.jpg,,,,,,,,,,,,,,,,,,,,,,,0,1,,None,,279.33842139999615,,,,,None,,0,,,2025.2.4,,,279.3247095000115,281.05577999999514,,,279.3381717666673,280.24843510001665,,,25,0,2026-07-21_13:23:04.137501,25,26,,None,,,None,,25,25,0,25,,,,,,flower,Fleur,Blume,
284.48670240002684,285.70001939998474,1.21,,,1,285.70012550003594,285.70017490000464,,,house,9,9,,,,,,,,,,,,,,,,,,,,,,,,,,,,,,None,,,None,2026-07-21_13h18.24.447,34,TSRlearn_localizer-concepts,2026-07-21 13h18.25.567133 +0200,,282.79252160002943,284.50303730001906,284.50303730001906,285.73149209999247,,,,59.864502684314424,282.02147859998513,282.79252160002943,,,282.0120735000237,282.7686707000248,,,house\house_34.jpg,,,,,,,,,,,,,,,,,,,,,,,0,1,,None,,282.79252160002943,,,,,None,,0,,,2025.2.4,,,282.77422570000635,284.4866311000078,,,282.78497726668525,283.3149023000151,,,26,0,2026-07-21_13:23:07.578114,26,27,,None,,,None,,26,26,0,26,,,,,,house,Maison,Haus,
288.18501270003617,289.2139136000187,1.03,,,1,289.21399860002566,289.2140379000339,,,dog,5,5,,,,,,,,,,,,,,,,,,,,,,,,,,,,,,None,,,None,2026-07-21_13h18.24.447,5,TSRlearn_localizer-concepts,2026-07-21 13h18.25.567133 +0200,,286.485595599981,288.1983740000287,288.1983740000287,289.2555425000028,,,,59.864502684314424,285.73149209999247,286.485595599981,,,285.7179203000269,286.4686607000185,,,dog\dog_05.jpg,,,,,,,,,,,,,,,,,,,,,,,0,1,,None,,286.485595599981,,,,,None,,0,,,2025.2.4,,,286.47264839999843,288.1849460999947,,,286.48507026664834,286.9685024000355,,,27,0,2026-07-21_13:23:11.288127,27,28,,None,,,None,,27,27,0,27,,,,,,dog,Chien,Hund,
291.7129477999988,292.6991686000256,0.98,,,1,292.69924859999446,292.6992894000141,,,hand,8,8,,,,,,,,,,,,,,,,,,,,,,,,,,,,,,None,,,None,2026-07-21_13h18.24.447,10,TSRlearn_localizer-concepts,2026-07-21 13h18.25.567133 +0200,,290.0124117000378,291.7291137999855,291.7291137999855,292.7409291000222,,,,59.864502684314424,289.2555425000028,290.0124117000378,,,289.2431198999984,289.9958342000027,,,hand\hand_10.jpg,,,,,,,,,,,,,,,,,,,,,,,0,1,,None,,290.0124117000378,,,,,None,,0,,,2025.2.4,,,289.99907860002713,291.71283149998635,,,290.01236276666555,290.4971659000148,,,28,0,2026-07-21_13:23:14.812177,28,29,,None,,,None,,28,28,0,28,,,,,,hand,Main,Hand,
295.1949122000369,296.24500150000677,1.05,,,1,296.24507240002276,296.24510970001575,,,flower,6,6,,,,,,,,,,,,,,,,,,,,,,,,,,,,,,None,,,None,2026-07-21_13h18.24.447,32,TSRlearn_localizer-concepts,2026-07-21 13h18.25.567133 +0200,,293.49554670002544,295.21115630003624,295.21115630003624,296.27726390003227,,,,59.864502684314424,292.7409291000222,293.49554670002544,,,292.72688289999496,293.4794113999815,,,flower\flower_32.jpg,,,,,,,,,,,,,,,,,,,,,,,0,1,,None,,293.49554670002544,,,,,None,,0,,,2025.2.4,,,293.48220880003646,295.19482810003683,,,293.4958354666635,294.3840239000274,,,29,0,2026-07-21_13:23:18.297564,29,30,,None,,,None,,29,29,0,29,,,,,,flower,Fleur,Blume,
298.73069170000963,299.5094989000354,0.77,,,1,299.50958830001764,299.5096297999844,,,hammer,7,7,,,,,,,,,,,,,,,,,,,,,,,,,,,,,,None,,,None,2026-07-21_13h18.24.447,27,TSRlearn_localizer-concepts,2026-07-21 13h18.25.567133 +0200,,297.02721139998175,298.7486613999936,298.7486613999936,299.5424546999857,,,,59.864502684314424,296.27726390003227,297.02721139998175,,,296.26432190003106,297.01072359998943,,,hammer\hammer_27.jpg,,,,,,,,,,,,,,,,,,,,,,,0,1,,None,,297.02721139998175,,,,,None,,0,,,2025.2.4,,,297.0138372000074,298.73058510001283,,,297.0272196666958,297.54386720003095,,,30,0,2026-07-21_13:23:21.833899,30,31,,None,,,None,,30,30,0,30,,,,,,hammer,Marteau,Hammer,
301.9967921000207,303.11216090002563,1.11,,,1,303.11224779998884,303.1122943999944,,,dog,5,5,,,,,,,,,,,,,,,,,,,,,,,,,,,,,,None,,,None,2026-07-21_13h18.24.447,6,TSRlearn_localizer-concepts,2026-07-21 13h18.25.567133 +0200,,300.29246700002113,302.0137800000375,302.0137800000375,303.1601377000334,,,,59.864502684314424,299.5424546999857,300.29246700002113,,,299.5346217000042,300.27587660000427,,,dog\dog_06.jpg,,,,,,,,,,,,,,,,,,,,,,,0,1,,None,,300.29246700002113,,,,,None,,0,,,2025.2.4,,,300.2792383999913,301.9967206000001,,,300.2923880666533,300.77942690002965,,,31,0,2026-07-21_13:23:25.099090,31,32,,None,,,None,,31,31,0,31,,,,,,dog,Chien,Hund,
305.6408681999892,306.5582773000351,0.91,,,1,306.558353200031,306.5583931999863,,,flower,6,6,,,,,,,,,,,,,,,,,,,,,,,,,,,,,,None,,,None,2026-07-21_13h18.24.447,4,TSRlearn_localizer-concepts,2026-07-21 13h18.25.567133 +0200,,303.92498140002135,305.6573979000095,305.6573979000095,306.6304864999838,,,,59.864502684314424,303.1601377000334,303.92498140002135,,,303.1477193000028,303.90900450001936,,,flower\flower_04.jpg,,,,,,,,,,,,,,,,,,,,,,,0,1,,None,,303.92498140002135,,,,,None,,0,,,2025.2.4,,,303.9117730000289,305.640781300026,,,303.9253607666508,304.8282732000225,,,32,0,2026-07-21_13:23:28.716773,32,33,,None,,,None,,32,32,0,32,,,,,,flower,Fleur,Blume,
309.0786501999828,309.91141150001204,0.82,,,1,309.91149369999766,309.91154549998464,,,ball,1,1,,,,,,,,,,,,,,,,,,,,,,,,,,,,,,None,,,None,2026-07-21_13h18.24.447,11,TSRlearn_localizer-concepts,2026-07-21 13h18.25.567133 +0200,,307.3903045000043,309.0940408000024,309.0940408000024,309.945237500011,,,,59.864502684314424,306.6304864999838,307.3903045000043,,,306.6149638000061,307.37398390000453,,,ball\ball_11.jpg,,,,,,,,,,,,,,,,,,,,,,,0,1,,None,,307.3903045000043,,,,,None,,0,,,2025.2.4,,,307.37683610001113,309.07858700002544,,,307.3904518666716,308.1733381000231,,,33,0,2026-07-21_13:23:32.187121,33,34,,None,,,None,,33,33,0,33,,,,,,ball,Ballon,Ball,
312.40762220002944,313.3722112000105,0.95,,,1,313.3722875000094,313.37232850003056,,,jacket,10,10,,,,,,,,,,,,,,,,,,,,,,,,,,,,,,None,,,None,2026-07-21_13h18.24.447,11,TSRlearn_localizer-concepts,2026-07-21 13h18.25.567133 +0200,,310.709077699983,312.42601500003366,312.42601500003366,313.394388900022,,,,59.864502684314424,309.945237500011,310.709077699983,,,309.92851900000824,310.6898627000046,,,jacket\jacket_11.jpg,,,,,,,,,,,,,,,,,,,,,,,0,1,,None,,310.709077699983,,,,,None,,0,,,2025.2.4,,,310.69431470002746,312.40751920000184,,,310.7062782666801,311.2563954000361,,,34,0,2026-07-21_13:23:35.501872,34,35,,None,,,None,,34,34,0,34,,,,,,jacket,Veste,Jacke,
315.85524090001127,316.82066530000884,0.96,,,1,316.82074130000547,316.82078040001215,,,house,9,9,,,,,,,,,,,,,,,,,,,,,,,,,,,,,,None,,,None,2026-07-21_13h18.24.447,13,TSRlearn_localizer-concepts,2026-07-21 13h18.25.567133 +0200,,314.1551389999804,315.87121940002544,315.87121940002544,316.84614829998463,,,,59.864502684314424,313.394388900022,314.1551389999804,,,313.3875995000126,314.1385520999902,,,house\house_13.jpg,,,,,,,,,,,,,,,,,,,,,,,0,1,,None,,314.1551389999804,,,,,None,,0,,,2025.2.4,,,314.1426574999932,315.8551615999895,,,314.15502236667476,314.687925300037,,,35,0,2026-07-21_13:23:38.951024,35,36,,None,,,None,,35,35,0,35,,,,,,house,Maison,Haus,
319.30314999999246,320.55458910000743,1.24,,,1,320.5546673000208,320.55470710003283,,,bicycle,2,2,,,,,,,,,,,,,,,,,,,,,,,,,,,,,,None,,,None,2026-07-21_13h18.24.447,6,TSRlearn_localizer-concepts,2026-07-21 13h18.25.567133 +0200,,317.59462930000154,319.31956800003536,319.31956800003536,320.63050630001817,,,,59.864502684314424,316.84614829998463,317.59462930000154,,,316.83931449998636,317.57957350002835,,,bicycle\bicycle_06.jpg,,,,,,,,,,,,,,,,,,,,,,,0,1,,None,,317.59462930000154,,,,,None,,0,,,2025.2.4,,,317.5816755000269,319.30307140003424,,,317.5960007666765,318.30505920003634,,,36,0,2026-07-21_13:23:42.402783,36,37,,None,,,None,,36,36,0,36,,,,,,bicycle,Vélo,Fahrrad,
323.0856819000328,324.23526540002786,1.15,,,1,324.2353307000012,324.23536039999453,,,bread,3,3,,,,,,,,,,,,,,,,,,,,,,,,,,,,,,None,,,None,2026-07-21_13h18.24.447,15,TSRlearn_localizer-concepts,2026-07-21 13h18.25.567133 +0200,,321.38601389998803,323.10207650001394,323.10207650001394,324.2602887999965,,,,59.864502684314424,320.63050630001817,321.38601389998803,,,320.60938700003317,321.3696969000157,,,bread\bread_15.jpg,,,,,,,,,,,,,,,,,,,,,,,0,1,,None,,321.38601389998803,,,,,None,,0,,,2025.2.4,,,321.3731289000134,323.0856182000134,,,321.3861603666485,322.31884309998713,,,37,0,2026-07-21_13:23:46.187141,37,38,,None,,,None,,37,37,0,37,,,,,,bread,Pain,Brot,
326.7040587000083,327.76721339998767,1.06,,,1,327.7672981999931,327.7673465000116,,,house,9,5,,,,,,,,,,,,,,,,,,,,,,,,,,,,,,None,,,r,2026-07-21_13h18.24.447,40,TSRlearn_localizer-concepts,2026-07-21 13h18.25.567133 +0200,,325.01777650002623,326.7218958000303,326.7218958000303,327.7948318999843,,,,59.864502684314424,324.2602887999965,325.01777650002623,,,324.25097090000054,325.0013863000204,,,house\house_40.jpg,,,,,,,,,,,,,,,,,,,,,,,1,1,,None,,325.01777650002623,,,,,right,,0,,,2025.2.4,,,325.00465720001375,326.70398410002235,,,325.0178959666557,325.5056310000364,,,38,0,2026-07-21_13:23:49.816924,38,39,,None,,,None,,38,38,0,38,,,,,,dog,Chien,Hund,
330.26696280000033,331.08264400000917,0.81,,,1,331.08271180000156,331.0827520000166,,,bicycle,2,2,,,,,,,,,,,,,,,,,,,,,,,,,,,,,,None,,,None,2026-07-21_13h18.24.447,13,TSRlearn_localizer-concepts,2026-07-21 13h18.25.567133 +0200,,328.55028070003027,330.2833282999927,330.2833282999927,331.1431135000312,,,,59.864502684314424,327.7948318999843,328.55028070003027,,,327.7833840000094,328.5338732000091,,,bicycle\bicycle_13.jpg,,,,,,,,,,,,,,,,,,,,,,,0,1,,None,,328.55028070003027,,,,,None,,0,,,2025.2.4,,,328.5359872999834,330.26690580003196,,,328.5503571666816,329.25152039999375,,,39,0,2026-07-21_13:23:53.351467,39,40,,None,,,None,,39,39,0,39,,,,,,bicycle,Vélo,Fahrrad,
333.60315640002955,334.7981376000098,1.19,,,1,334.7982245000312,334.7982720999862,,,bread,3,3,,,,,,,,,,,,,,,,,,,,,,,,,,,,,,None,,,None,2026-07-21_13h18.24.447,21,TSRlearn_localizer-concepts,2026-07-21 13h18.25.567133 +0200,,331.8995448999922,333.61647800001083,333.61647800001083,334.8254001000314,,,,59.864502684314424,331.1431135000312,331.8995448999922,,,331.134212200006,331.88321649999125,,,bread\bread_21.jpg,,,,,,,,,,,,,,,,,,,,,,,0,1,,None,,331.8995448999922,,,,,None,,0,,,2025.2.4,,,331.88627800001996,333.60309350001626,,,331.89966386667606,332.81548460002523,,,40,0,2026-07-21_13:23:56.699749,40,41,,None,,,None,,40,40,0,40,,,,,,bread,Pain,Brot,
337.2816218000371,338.13151640002616,0.85,,,1,338.13158420001855,338.1316164000309,,,hand,8,8,,,,,,,,,,,,,,,,,,,,,,,,,,,,,,None,,,None,2026-07-21_13h18.24.447,14,TSRlearn_localizer-concepts,2026-07-21 13h18.25.567133 +0200,,335.5877086999826,337.2981509999954,337.2981509999954,338.15721159998793,,,,59.864502684314424,334.8254001000314,335.5877086999826,,,334.81815310003003,335.57115790003445,,,hand\hand_14.jpg,,,,,,,,,,,,,,,,,,,,,,,0,1,,None,,335.5877086999826,,,,,None,,0,,,2025.2.4,,,335.5748268000316,337.2815483000013,,,335.58754706668356,336.06684719998157,,,41,0,2026-07-21_13:24:00.382035,41,42,,None,,,None,,41,41,0,41,,,,,,hand,Main,Hand,
340.6300525999977,341.39662220003083,0.76,,,1,341.3966898000217,341.39672620000783,,,chair,4,4,,,,,,,,,,,,,,,,,,,,,,,,,,,,,,None,,,None,2026-07-21_13h18.24.447,23,TSRlearn_localizer-concepts,2026-07-21 13h18.25.567133 +0200,,338.91331470001023,340.6471477000159,340.6471477000159,341.4557463999954,,,,59.864502684314424,338.15721159998793,338.91331470001023,,,338.1490582000115,338.8971656000358,,,chair\chair_23.jpg,,,,,,,,,,,,,,,,,,,,,,,0,1,,None,,338.91331470001023,,,,,None,,0,,,2025.2.4,,,338.90067509998335,340.6299910999951,,,338.913686966702,339.4800627999939,,,42,0,2026-07-21_13:24:03.713846,42,43,,None,,,None,,42,42,0,42,,,,,,chair,Chaise,Stuhl,
343.9126304999809,345.14661130000604,1.22,,,1,345.14669930003583,345.14676030003466,,,bicycle,2,2,,,,,,,,,,,,,,,,,,,,,,,,,,,,,,None,,,None,2026-07-21_13h18.24.447,31,TSRlearn_localizer-concepts,2026-07-21 13h18.25.567133 +0200,,342.21448120003333,343.9296805000049,343.9296805000049,345.17150410002796,,,,59.864502684314424,341.4557463999954,342.21448120003333,,,341.4435056000366,342.1990522000124,,,bicycle\bicycle_31.jpg,,,,,,,,,,,,,,,,,,,,,,,0,1,,None,,342.21448120003333,,,,,None,,0,,,2025.2.4,,,342.20115909999004,343.9125497000059,,,342.21551026666225,342.91207100002794,,,43,0,2026-07-21_13:24:07.012381,43,44,,None,,,None,,43,43,0,43,,,,,,bicycle,Vélo,Fahrrad,
347.62871160003124,348.6831234000274,1.05,,,1,348.6832010000362,348.6832408999908,,,hammer,7,7,,,,,,,,,,,,,,,,,,,,,,,,,,,,,,None,,,None,2026-07-21_13h18.24.447,31,TSRlearn_localizer-concepts,2026-07-21 13h18.25.567133 +0200,,345.9279150000075,347.6443957000156,347.6443957000156,348.7305335000274,,,,59.864502684314424,345.17150410002796,345.9279150000075,,,345.16166159999557,345.9113870000001,,,hammer\hammer_31.jpg,,,,,,,,,,,,,,,,,,,,,,,0,1,,None,,345.9279150000075,,,,,None,,0,,,2025.2.4,,,345.9147443000111,347.62864120001905,,,345.9278998666598,346.44456309999805,,,44,0,2026-07-21_13:24:10.728139,44,45,,None,,,None,,44,44,0,44,,,,,,hammer,Marteau,Hammer,
351.19613050000044,352.3297325000167,1.12,,,1,352.329813999997,352.32985370000824,,,chair,4,4,,,,,,,,,,,,,,,,,,,,,,,,,,,,,,None,,,None,2026-07-21_13h18.24.447,46,TSRlearn_localizer-concepts,2026-07-21 13h18.25.567133 +0200,,349.49801520002075,351.2140272000106,351.2140272000106,352.376116200001,,,,59.864502684314424,348.7305335000274,349.49801520002075,,,348.7186297000153,349.477260500018,,,chair\chair_46.jpg,,,,,,,,,,,,,,,,,,,,,,,0,1,,None,,349.49801520002075,,,,,None,,0,,,2025.2.4,,,349.48140520002926,351.1960636000149,,,349.4937227666999,350.04786940000486,,,45,0,2026-07-21_13:24:14.287169,45,46,,None,,,None,,45,45,0,45,,,,,,chair,Chaise,Stuhl,
354.8259282000363,355.74531199998455,0.92,,,1,355.74542280001333,355.74548610002967,,,ball,1,2,,,,,,,,,,,,,,,,,,,,,,,,,,,,,,None,,,r,2026-07-21_13h18.24.447,13,TSRlearn_localizer-concepts,2026-07-21 13h18.25.567133 +0200,,353.1318703999859,354.84216000000015,354.84216000000015,355.79118130001007,,,,59.864502684314424,352.376116200001,353.1318703999859,,,352.3602735000313,353.1153756999993,,,ball\ball_13.jpg,,,,,,,,,,,,,,,,,,,,,,,1,1,,None,,353.1318703999859,,,,,left,,0,,,2025.2.4,,,353.1183616000344,354.82585299998755,,,353.1317293666691,353.842762699991,,,46,0,2026-07-21_13:24:17.932751,46,47,,None,,,None,,46,46,0,46,,,,,,bicycle,Vélo,Fahrrad,
358.2300785999978,359.0258146999986,0.79,,,1,359.02588670002297,359.02592789998744,,,bread,3,3,,,,,,,,,,,,,,,,,,,,,,,,,,,,,,None,,,None,2026-07-21_13h18.24.447,37,TSRlearn_localizer-concepts,2026-07-21 13h18.25.567133 +0200,,356.5417201999808,358.2464555000188,358.2464555000188,359.08978570002364,,,,59.864502684314424,355.79118130001007,356.5417201999808,,,355.7783985999995,356.5250918000238,,,bread\bread_37.jpg,,,,,,,,,,,,,,,,,,,,,,,0,1,,None,,356.5417201999808,,,,,None,,0,,,2025.2.4,,,356.5280252000084,358.2300126000191,,,356.54157756665177,357.4755976999877,,,47,0,2026-07-21_13:24:21.347816,47,48,,None,,,None,,47,47,0,47,,,,,,bread,Pain,Brot,
361.54195049998816,362.73998300003586,1.2,,,1,362.7400521999807,362.74008760001743,,,dog,5,5,,,,,,,,,,,,,,,,,,,,,,,,,,,,,,None,,,None,2026-07-21_13h18.24.447,44,TSRlearn_localizer-concepts,2026-07-21 13h18.25.567133 +0200,,359.8453780999989,361.5568424999947,361.5568424999947,362.7845440999954,,,,59.864502684314424,359.08978570002364,359.8453780999989,,,359.0704958999995,359.82845530001214,,,dog\dog_44.jpg,,,,,,,,,,,,,,,,,,,,,,,0,1,,None,,359.8453780999989,,,,,None,,0,,,2025.2.4,,,359.83177729998715,361.5418820999912,,,359.8448989666688,360.3268246999942,,,48,0,2026-07-21_13:24:24.646421,48,49,,None,,,None,,48,48,0,48,,,,,,dog,Chien,Hund,
365.2553932000301,366.27616619999753,1.01,,,1,366.2762555999798,390.6327822000021,366.2923848000355,381.30065510002896,jacket,10,10,,,,,,,,,,,,,,,,,,,,,,,,,,,,,0.1727070999913849,g,9.169078500010073,381.2843509000377,None,2026-07-21_13h18.24.447,44,TSRlearn_localizer-concepts,2026-07-21 13h18.25.567133 +0200,,363.53908080002293,365.271775900037,365.271775900037,366.2923848000355,,,,59.864502684314424,362.7845440999954,363.53908080002293,,,362.77621009998256,363.522650400002,,,jacket\jacket_44.jpg,381.2843509000377,,,,,,,,,,,,,,,,,,,,,,0,1,,None,,363.53908080002293,,,,,None,,0,366.2923848000355,381.30065510002896,2025.2.4,,,363.52724239998497,365.25531640002737,,,363.5391632666617,364.08939340000506,,,49,0,2026-07-21_13:24:28.341179,49,50,0.1727070999913849,g,9.169078500010073,,None,,49,49,0,49,,,,,,jacket,Veste,Jacke,
393.14993230003165,394.20368740003323,1.05,,,2,394.20823370001744,394.2083229999989,,,flower,6,6,,,,,,,,,,,,,,,,,,,,,,,,,,,,,,None,,,None,2026-07-21_13h18.24.447,27,TSRlearn_localizer-concepts,2026-07-21 13h18.25.567133 +0200,,391.4479180999915,393.16368800000055,393.16368800000055,394.23864980001235,,,,59.864502684314424,390.6861232999945,391.4479180999915,,,390.6714389999979,391.4312482000096,,,flower\flower_27.jpg,,,,,,,,,,,,,,,,,,,,,,,0,1,,None,,391.4479180999915,,,,,None,,0,,,2025.2.4,,,391.4340936000226,393.1498728999868,,,391.44771066669296,392.3297812999808,,,50,0,2026-07-21_13:24:56.242758,50,1,,None,,,None,,50,50,0,50,,,,,,flower,Fleur,Blume,
396.71327619999647,397.9166332000168,1.2,,,2,397.91672029998153,397.91676370002097,,,chair,4,4,,,,,,,,,,,,,,,,,,,,,,,,,,,,,,None,,,None,2026-07-21_13h18.24.447,21,TSRlearn_localizer-concepts,2026-07-21 13h18.25.567133 +0200,,395.00179800001206,396.7296276999987,396.7296276999987,397.96414330002153,,,,59.864502684314424,394.23864980001235,395.00179800001206,,,394.2248598000151,394.9847046000068,,,chair\chair_21.jpg,,,,,,,,,,,,,,,,,,,,,,,0,1,,None,,395.00179800001206,,,,,None,,0,,,2025.2.4,,,394.98927670001285,396.7132016000105,,,395.00115236669467,395.56248359999154,,,51,0,2026-07-21_13:24:59.795285,51,2,,None,,,None,,51,51,0,51,,,,,,chair,Chaise,Stuhl,
400.4319545000326,401.3112204000354,0.88,,,2,401.31130220001796,401.31134459999157,,,hand,8,8,,,,,,,,,,,,,,,,,,,,,,,,,,,,,,None,,,None,2026-07-21_13h18.24.447,5,TSRlearn_localizer-concepts,2026-07-21 13h18.25.567133 +0200,,398.7281866000267,400.44524949998595,400.44524949998595,401.3460562999826,,,,59.864502684314424,397.96414330002153,398.7281866000267,,,397.9531804000144,398.71208090003347,,,hand\hand_05.jpg,,,,,,,,,,,,,,,,,,,,,,,0,1,,None,,398.7281866000267,,,,,None,,0,,,2025.2.4,,,398.71571449999465,400.43185759999324,,,398.7285313666837,399.21633800002746,,,52,0,2026-07-21_13:25:03.520778,52,3,,None,,,None,,52,52,0,52,,,,,,hand,Main,Hand,
403.8141083000228,404.79828650003765,0.98,,,2,404.79837470001075,404.7984337999951,,,dog,5,5,,,,,,,,,,,,,,,,,,,,,,,,,,,,,,None,,,None,2026-07-21_13h18.24.447,6,TSRlearn_localizer-concepts,2026-07-21 13h18.25.567133 +0200,,402.09918409999227,403.83049840002786,403.83049840002786,404.8266946999938,,,,59.864502684314424,401.3460562999826,402.09918409999227,,,401.33597700000973,402.08269300003303,,,dog\dog_06.jpg,,,,,,,,,,,,,,,,,,,,,,,0,1,,None,,402.09918409999227,,,,,None,,0,,,2025.2.4,,,402.0861411000369,403.81403260002844,,,402.09909916669517,402.5822119000368,,,53,0,2026-07-21_13:25:06.902691,53,4,,None,,,None,,53,53,0,53,,,,,,dog,Chien,Hund,
407.27602590003517,408.1186116000172,0.84,,,2,408.1186988999834,408.1187420000206,,,hammer,7,7,,,,,,,,,,,,,,,,,,,,,,,,,,,,,,None,,,None,2026-07-21_13h18.24.447,31,TSRlearn_localizer-concepts,2026-07-21 13h18.25.567133 +0200,,405.5797482000198,407.29195470002014,407.29195470002014,408.2133526999969,,,,59.864502684314424,404.8266946999938,405.5797482000198,,,404.8141586999991,405.5636530999909,,,hammer\hammer_31.jpg,,,,,,,,,,,,,,,,,,,,,,,0,1,,None,,405.5797482000198,,,,,None,,0,,,2025.2.4,,,405.56694480002625,407.2759572000359,,,405.5801012666818,406.0964246999938,,,54,0,2026-07-21_13:25:10.383330,54,5,,None,,,None,,54,54,0,54,,,,,,hammer,Marteau,Hammer,
410.6802243000129,411.61097660002997,0.93,,,2,411.61105449998286,411.6110946999979,,,ball,1,1,,,,,,,,,,,,,,,,,,,,,,,,,,,,,,None,,,None,2026-07-21_13h18.24.447,11,TSRlearn_localizer-concepts,2026-07-21 13h18.25.567133 +0200,,408.97586589999264,410.69626160000917,410.69626160000917,411.6537035999936,,,,59.864502684314424,408.2133526999969,408.97586589999264,,,408.17651620000834,408.959192099981,,,ball\ball_11.jpg,,,,,,,,,,,,,,,,,,,,,,,0,1,,None,,408.97586589999264,,,,,None,,0,,,2025.2.4,,,408.96208870003466,410.680148000014,,,408.97561796667674,409.74122030002763,,,55,0,2026-07-21_13:25:13.769988,55,6,,None,,,None,,55,55,0,55,,,,,,ball,Ballon,Ball,
414.11074020003434,415.2733547000098,1.15,,,2,415.27345390000846,415.27350260003004,,,hammer,7,7,,,,,,,,,,,,,,,,,,,,,,,,,,,,,,None,,,None,2026-07-21_13h18.24.447,34,TSRlearn_localizer-concepts,2026-07-21 13h18.25.567133 +0200,,412.41111450002063,414.12745909998193,414.12745909998193,415.3214876999846,,,,59.864502684314424,411.6537035999936,412.41111450002063,,,411.6383260000148,412.3948131999932,,,hammer\hammer_34.jpg,,,,,,,,,,,,,,,,,,,,,,,0,1,,None,,412.41111450002063,,,,,None,,0,,,2025.2.4,,,412.39910390001023,414.1106635000324,,,412.41124296666044,412.92380779999075,,,56,0,2026-07-21_13:25:17.210339,56,7,,None,,,None,,56,56,0,56,,,,,,hammer,Marteau,Hammer,
417.78919229999883,418.77512810000917,0.98,,,2,418.7752254999941,418.7752646000008,,,bicycle,2,8,,,,,,,,,,,,,,,,,,,,,,,,,,,,,,None,,,r,2026-07-21_13h18.24.447,45,TSRlearn_localizer-concepts,2026-07-21 13h18.25.567133 +0200,,416.07282509998186,417.8053180000279,417.8053180000279,418.83075530000497,,,,59.864502684314424,415.3214876999846,416.07282509998186,,,415.3093351999996,416.05743580003036,,,bicycle\bicycle_45.jpg,,,,,,,,,,,,,,,,,,,,,,,1,1,,None,,416.07282509998186,,,,,left,,0,,,2025.2.4,,,416.06070269999327,417.78912420000415,,,416.0738290666525,416.55626219999976,,,57,0,2026-07-21_13:25:20.878123,57,8,,None,,,None,,57,57,0,57,,,,,,hand,Main,Hand,
421.29226200003177,422.15837530000135,0.85,,,2,422.1584568999824,422.1584918000153,,,bread,3,3,,,,,,,,,,,,,,,,,,,,,,,,,,,,,,None,,,None,2026-07-21_13h18.24.447,12,TSRlearn_localizer-concepts,2026-07-21 13h18.25.567133 +0200,,419.59234580001794,421.311060899985,421.311060899985,422.18638790003024,,,,59.864502684314424,418.83075530000497,419.59234580001794,,,418.80598880001344,419.5771897000377,,,bread\bread_12.jpg,,,,,,,,,,,,,,,,,,,,,,,0,1,,None,,419.59234580001794,,,,,None,,0,,,2025.2.4,,,419.5801206000033,421.2921809999971,,,419.59363436670196,420.50986789999297,,,58,0,2026-07-21_13:25:24.387390,58,9,,None,,,None,,58,58,0,58,,,,,,bread,Pain,Brot,
424.6555221999879,425.5364480999997,0.88,,,2,425.53653199999826,425.5365723000141,,,hammer,7,7,,,,,,,,,,,,,,,,,,,,,,,,,,,,,,None,,,None,2026-07-21_13h18.24.447,27,TSRlearn_localizer-concepts,2026-07-21 13h18.25.567133 +0200,,422.94141080003465,424.6713739000261,424.6713739000261,425.5601580000366,,,,59.864502684314424,422.18638790003024,422.94141080003465,,,422.17391409998527,422.9257944999845,,,hammer\hammer_27.jpg,,,,,,,,,,,,,,,,,,,,,,,0,1,,None,,422.94141080003465,,,,,None,,0,,,2025.2.4,,,422.9293157000211,424.65544140001293,,,422.9422198666764,423.4593658000231,,,59,0,2026-07-21_13:25:27.743023,59,10,,None,,,None,,59,59,0,59,,,,,,hammer,Marteau,Hammer,
428.0091054000077,429.24037990003126,1.22,,,2,429.2404578999849,429.2404996000114,,,bicycle,2,2,,,,,,,,,,,,,,,,,,,,,,,,,,,,,,None,,,None,2026-07-21_13h18.24.447,46,TSRlearn_localizer-concepts,2026-07-21 13h18.25.567133 +0200,,426.3048251,428.0244437000365,428.0244437000365,429.3192432000069,,,,59.864502684314424,425.5601580000366,426.3048251,,,425.5518870999804,426.2937913000351,,,bicycle\bicycle_46.jpg,,,,,,,,,,,,,,,,,,,,,,,0,1,,None,,426.3048251,,,,,None,,0,,,2025.2.4,,,426.2959802999976,428.00897740002256,,,426.31020436669155,427.02288270002464,,,60,0,2026-07-21_13:25:31.116793,60,11,,None,,,None,,60,60,0,60,,,,,,bicycle,Vélo,Fahrrad,
431.78876590001164,432.60129100002814,0.8,,,2,432.6013624999905,432.6013982000295,,,jacket,10,4,,,,,,,,,,,,,,,,,,,,,,,,,,,,,,None,,,r,2026-07-21_13h18.24.447,44,TSRlearn_localizer-concepts,2026-07-21 13h18.25.567133 +0200,,430.0824573999853,431.8049608999863,431.8049608999863,432.63255179999396,,,,59.864502684314424,429.3192432000069,430.0824573999853,,,429.2845019000233,430.0572333000018,,,jacket\jacket_44.jpg,,,,,,,,,,,,,,,,,,,,,,,1,1,,None,,430.0824573999853,,,,,left,,0,,,2025.2.4,,,430.0632366000209,431.7886865999899,,,430.073573166683,430.6401596000069,,,61,0,2026-07-21_13:25:34.875878,61,12,,None,,,None,,61,61,0,61,,,,,,chair,Chaise,Stuhl,
435.0842123000184,435.9666020000004,0.87,,,2,435.9666748000309,435.9667083999957,,,house,9,9,,,,,,,,,,,,,,,,,,,,,,,,,,,,,,None,,,None,2026-07-21_13h18.24.447,7,TSRlearn_localizer-concepts,2026-07-21 13h18.25.567133 +0200,,433.3837669999921,435.10138150001876,435.10138150001876,436.01912700000685,,,,59.864502684314424,432.63255179999396,433.3837669999921,,,432.6186574000167,433.3674954000162,,,house\house_07.jpg,,,,,,,,,,,,,,,,,,,,,,,0,1,,None,,433.3837669999921,,,,,None,,0,,,2025.2.4,,,433.3721162999864,435.084131599986,,,433.3839921666697,433.9175236999872,,,62,0,2026-07-21_13:25:38.189187,62,13,,None,,,None,,62,62,0,62,,,,,,house,Maison,Haus,
438.4833461000235,439.34942109999247,0.86,,,2,439.34951610001735,439.34957459999714,,,ball,1,1,,,,,,,,,,,,,,,,,,,,,,,,,,,,,,None,,,None,2026-07-21_13h18.24.447,45,TSRlearn_localizer-concepts,2026-07-21 13h18.25.567133 +0200,,436.7831107000238,438.5026758000022,438.5026758000022,439.3974383000168,,,,59.864502684314424,436.01912700000685,436.7831107000238,,,436.0060978999827,436.76659300003666,,,ball\ball_45.jpg,,,,,,,,,,,,,,,,,,,,,,,0,1,,None,,436.7831107000238,,,,,None,,0,,,2025.2.4,,,436.76935600000434,438.4832785000326,,,436.78303006670126,437.54963239998324,,,63,0,2026-07-21_13:25:41.575762,63,14,,None,,,None,,63,63,0,63,,,,,,ball,Ballon,Ball,
441.86505730001954,443.0475661000237,1.18,,,2,443.0476488000131,443.0476906999829,,,bread,3,3,,,,,,,,,,,,,,,,,,,,,,,,,,,,,,None,,,None,2026-07-21_13h18.24.447,37,TSRlearn_localizer-concepts,2026-07-21 13h18.25.567133 +0200,,440.15271440002834,441.8806715999963,441.8806715999963,443.0698524999898,,,,59.864502684314424,439.3974383000168,440.15271440002834,,,439.38339710002765,440.1361956000328,,,bread\bread_37.jpg,,,,,,,,,,,,,,,,,,,,,,,0,1,,None,,440.15271440002834,,,,,None,,0,,,2025.2.4,,,440.1391847000341,441.8649909000378,,,440.15257616667463,441.08310769998934,,,64,0,2026-07-21_13:25:44.954073,64,15,,None,,,None,,64,64,0,64,,,,,,bread,Pain,Brot,
445.5306900999858,446.55217330000596,1.01,,,2,446.5522883000085,446.55235499999253,,,dog,5,5,,,,,,,,,,,,,,,,,,,,,,,,,,,,,,None,,,None,2026-07-21_13h18.24.447,30,TSRlearn_localizer-concepts,2026-07-21 13h18.25.567133 +0200,,443.830801300006,445.5469056000002,445.5469056000002,446.5831867000088,,,,59.864502684314424,443.0698524999898,443.830801300006,,,443.0631121000042,443.8140022000298,,,dog\dog_30.jpg,,,,,,,,,,,,,,,,,,,,,,,0,1,,None,,443.830801300006,,,,,None,,0,,,2025.2.4,,,443.81715279998025,445.5306164000067,,,443.8305119666659,444.3137768000015,,,65,0,2026-07-21_13:25:48.626487,65,16,,None,,,None,,65,65,0,65,,,,,,dog,Chien,Hund,
449.03337640000973,449.99708619999,0.95,,,2,449.99715650000144,449.9971897000214,,,house,9,9,,,,,,,,,,,,,,,,,,,,,,,,,,,,,,None,,,None,2026-07-21_13h18.24.447,13,TSRlearn_localizer-concepts,2026-07-21 13h18.25.567133 +0200,,447.33821880002506,449.0496012000367,449.0496012000367,450.01920199999586,,,,59.864502684314424,446.5831867000088,447.33821880002506,,,446.5702430999954,447.31893750000745,,,house\house_13.jpg,,,,,,,,,,,,,,,,,,,,,,,0,1,,None,,447.33821880002506,,,,,None,,0,,,2025.2.4,,,447.32372630003374,449.03330650000134,,,447.3352871666468,447.8626837999909,,,66,0,2026-07-21_13:25:52.139822,66,17,,None,,,None,,66,66,0,66,,,,,,house,Maison,Haus,
452.4946924999822,453.64514249999775,1.14,,,2,453.64521440002136,453.6452503000037,,,jacket,10,10,,,,,,,,,,,,,,,,,,,,,,,,,,,,,,None,,,None,2026-07-21_13h18.24.447,27,TSRlearn_localizer-concepts,2026-07-21 13h18.25.567133 +0200,,450.77820489997976,452.51185110001825,452.51185110001825,453.68624790001195,,,,59.864502684314424,450.01920199999586,450.77820489997976,,,450.0129829000216,450.7617707999889,,,jacket\jacket_27.jpg,,,,,,,,,,,,,,,,,,,,,,,0,1,,None,,450.77820489997976,,,,,None,,0,,,2025.2.4,,,450.7664542000275,452.49462509999285,,,450.77825636667353,451.3125596999889,,,67,0,2026-07-21_13:25:55.575837,67,18,,None,,,None,,67,67,0,67,,,,,,jacket,Veste,Jacke,
456.1479182000039,457.3306290000328,1.18,,,2,457.3307133000344,457.3307544999989,,,hand,8,8,,,,,,,,,,,,,,,,,,,,,,,,,,,,,,None,,,None,2026-07-21_13h18.24.447,36,TSRlearn_localizer-concepts,2026-07-21 13h18.25.567133 +0200,,454.4459691999946,456.1645504999906,456.1645504999906,457.35842850001063,,,,59.864502684314424,453.68624790001195,454.4459691999946,,,453.6739953000215,454.42883869999787,,,hand\hand_36.jpg,,,,,,,,,,,,,,,,,,,,,,,0,1,,None,,454.4459691999946,,,,,None,,0,,,2025.2.4,,,454.43257240002276,456.1478400999913,,,454.44527966669216,454.92746670002816,,,68,0,2026-07-21_13:25:59.242883,68,19,,None,,,None,,68,68,0,68,,,,,,hand,Main,Hand,
459.82627680001315,461.00872069998877,1.18,,,2,461.00879400002304,461.00883280002745,,,dog,5,5,,,,,,,,,,,,,,,,,,,,,,,,,,,,,,None,,,None,2026-07-21_13h18.24.447,39,TSRlearn_localizer-concepts,2026-07-21 13h18.25.567133 +0200,,458.11013220000314,459.8423491999856,459.8423491999856,461.0573241999955,,,,59.864502684314424,457.35842850001063,458.11013220000314,,,457.34552480001,458.0939060000237,,,dog\dog_39.jpg,,,,,,,,,,,,,,,,,,,,,,,0,1,,None,,458.11013220000314,,,,,None,,0,,,2025.2.4,,,458.0976789999986,459.8262121999869,,,458.11037706665616,458.592887900013,,,69,0,2026-07-21_13:26:02.915063,69,20,,None,,,None,,69,69,0,69,,,,,,dog,Chien,Hund,
463.5137800000375,464.3630196999875,0.84,,,2,464.3631069000112,464.36315180000383,,,chair,4,4,,,,,,,,,,,,,,,,,,,,,,,,,,,,,,None,,,None,2026-07-21_13h18.24.447,46,TSRlearn_localizer-concepts,2026-07-21 13h18.25.567133 +0200,,461.8090971999918,463.5290080999839,463.5290080999839,464.40607080003247,,,,59.864502684314424,461.0573241999955,461.8090971999918,,,461.0442657999811,461.7930779000162,,,chair\chair_46.jpg,,,,,,,,,,,,,,,,,,,,,,,0,1,,None,,461.8090971999918,,,,,None,,0,,,2025.2.4,,,461.79648190003354,463.51369320001686,,,461.80952696665577,462.3636037000106,,,70,0,2026-07-21_13:26:06.613959,70,21,,None,,,None,,70,70,0,70,,,,,,chair,Chaise,Stuhl,
466.873852299992,467.97740239999257,1.09,,,2,467.97748679999495,467.97752660000697,,,flower,6,6,,,,,,,,,,,,,,,,,,,,,,,,,,,,,,None,,,None,2026-07-21_13h18.24.447,32,TSRlearn_localizer-concepts,2026-07-21 13h18.25.567133 +0200,,465.16431329998886,466.8905388999847,466.8905388999847,468.0251799999969,,,,59.864502684314424,464.40607080003247,465.16431329998886,,,464.39156409999123,465.1445405000122,,,flower\flower_32.jpg,,,,,,,,,,,,,,,,,,,,,,,0,1,,None,,465.16431329998886,,,,,None,,0,,,2025.2.4,,,465.14730850001797,466.8737868000171,,,465.16101266665305,466.0444138000021,,,71,0,2026-07-21_13:26:09.962706,71,22,,None,,,None,,71,71,0,71,,,,,,flower,Fleur,Blume,
470.48935039999196,471.3927391000325,0.89,,,2,471.3928248999873,471.3928666000138,,,bread,3,3,,,,,,,,,,,,,,,,,,,,,,,,,,,,,,None,,,None,2026-07-21_13h18.24.447,48,TSRlearn_localizer-concepts,2026-07-21 13h18.25.567133 +0200,,468.789754300029,470.50631329999305,470.50631329999305,471.42178460001014,,,,59.864502684314424,468.0251799999969,468.789754300029,,,468.01385470002424,468.77323950000573,,,bread\bread_48.jpg,,,,,,,,,,,,,,,,,,,,,,,0,1,,None,,468.789754300029,,,,,None,,0,,,2025.2.4,,,468.7765186000033,470.48927130002994,,,468.7896147666654,469.7056547999964,,,72,0,2026-07-21_13:26:13.581815,72,23,,None,,,None,,72,72,0,72,,,,,,bread,Pain,Brot,
473.8920696999994,474.97484650003025,1.07,,,2,474.97492409998085,474.97496090002824,,,chair,4,4,,,,,,,,,,,,,,,,,,,,,,,,,,,,,,None,,,None,2026-07-21_13h18.24.447,27,TSRlearn_localizer-concepts,2026-07-21 13h18.25.567133 +0200,,472.1758454000228,473.9083055999945,473.9083055999945,475.00327899999684,,,,59.864502684314424,471.42178460001014,472.1758454000228,,,471.4080720000202,472.1596642000368,,,chair\chair_27.jpg,,,,,,,,,,,,,,,,,,,,,,,0,1,,None,,472.1758454000228,,,,,None,,0,,,2025.2.4,,,472.16351520002354,473.891993199999,,,472.17608816665984,472.7294588999939,,,73,0,2026-07-21_13:26:16.978420,73,24,,None,,,None,,73,73,0,73,,,,,,chair,Chaise,Stuhl,
477.47595049999654,478.7270123999915,1.24,,,2,478.727148200036,478.7272115999949,,,bicycle,2,2,,,,,,,,,,,,,,,,,,,,,,,,,,,,,,None,,,None,2026-07-21_13h18.24.447,6,TSRlearn_localizer-concepts,2026-07-21 13h18.25.567133 +0200,,475.764556500013,477.49069270002656,477.49069270002656,478.76944599999115,,,,59.864502684314424,475.00327899999684,475.764556500013,,,474.99112690001493,475.75136490003206,,,bicycle\bicycle_06.jpg,,,,,,,,,,,,,,,,,,,,,,,0,1,,None,,475.764556500013,,,,,None,,0,,,2025.2.4,,,475.75367020000704,477.47582779999357,,,475.76771246665544,476.4752632000018,,,74,0,2026-07-21_13:26:20.559914,74,25,,None,,,None,,74,74,0,74,,,,,,bicycle,Vélo,Fahrrad,
481.2253523999825,482.4227951000212,1.19,,,2,482.4228839999996,482.422927000036,,,hammer,7,7,,,,,,,,,,,,,,,,,,,,,,,,,,,,,,None,,,None,2026-07-21_13h18.24.447,14,TSRlearn_localizer-concepts,2026-07-21 13h18.25.567133 +0200,,479.52874929999234,481.2413335000165,481.2413335000165,482.5201167000341,,,,59.864502684314424,478.76944599999115,479.52874929999234,,,478.75556249998044,479.5086482000188,,,hammer\hammer_14.jpg,,,,,,,,,,,,,,,,,,,,,,,0,1,,None,,479.52874929999234,,,,,None,,0,,,2025.2.4,,,479.5142569000018,481.22519530000864,,,479.5249224666661,480.0410203000065,,,75,0,2026-07-21_13:26:24.326081,75,26,,None,,,None,,75,75,0,75,,,,,,hammer,Marteau,Hammer,
484.9852314000018,485.7717144000344,0.78,,,2,485.7717907000333,485.77182530000573,,,bread,3,3,,,,,,,,,,,,,,,,,,,,,,,,,,,,,,None,,,None,2026-07-21_13h18.24.447,15,TSRlearn_localizer-concepts,2026-07-21 13h18.25.567133 +0200,,483.27211680001346,485.0014548000181,485.0014548000181,485.830391000025,,,,59.864502684314424,482.5201167000341,483.27211680001346,,,482.48646049998933,483.2558485000045,,,bread\bread_15.jpg,,,,,,,,,,,,,,,,,,,,,,,0,1,,None,,483.27211680001346,,,,,None,,0,,,2025.2.4,,,483.25959730002796,484.9851524999831,,,483.2722651666884,484.18849030003184,,,76,0,2026-07-21_13:26:28.076752,76,27,,None,,,None,,76,76,0,76,,,,,,bread,Pain,Brot,
488.2732504000305,489.48670000000857,1.2,,,2,489.4867746999953,489.48681000003126,,,flower,6,6,,,,,,,,,,,,,,,,,,,,,,,,,,,,,,None,,,None,2026-07-21_13h18.24.447,47,TSRlearn_localizer-concepts,2026-07-21 13h18.25.567133 +0200,,486.5856742000324,488.2892783000134,488.2892783000134,489.5214073000243,,,,59.864502684314424,485.830391000025,486.5856742000324,,,485.8149151999969,486.5714921000181,,,flower\flower_47.jpg,,,,,,,,,,,,,,,,,,,,,,,0,1,,None,,486.5856742000324,,,,,None,,0,,,2025.2.4,,,486.5744267000118,488.27312610001536,,,486.5879332666557,487.4884616000345,,,77,0,2026-07-21_13:26:31.387026,77,28,,None,,,None,,77,77,0,77,,,,,,flower,Fleur,Blume,
491.9863648000173,492.8043095000321,0.81,,,2,492.80439290002687,492.80443250003736,,,jacket,10,10,,,,,,,,,,,,,,,,,,,,,,,,,,,,,,None,,,None,2026-07-21_13h18.24.447,11,TSRlearn_localizer-concepts,2026-07-21 13h18.25.567133 +0200,,490.2736712000333,492.00278819998493,492.00278819998493,492.94172750000143,,,,59.864502684314424,489.5214073000243,490.2736712000333,,,489.50457310001366,490.2545200000168,,,jacket\jacket_11.jpg,,,,,,,,,,,,,,,,,,,,,,,0,1,,None,,490.2736712000333,,,,,None,,0,,,2025.2.4,,,490.2597633000114,491.98629460000666,,,490.2709737666921,490.8207313999883,,,78,0,2026-07-21_13:26:35.078042,78,29,,None,,,None,,78,78,0,78,,,,,,jacket,Veste,Jacke,
495.3986426999909,496.61803210002836,1.21,,,2,496.61811600002693,496.61815140000544,,,ball,1,5,,,,,,,,,,,,,,,,,,,,,,,,,,,,,,None,,,r,2026-07-21_13h18.24.447,7,TSRlearn_localizer-concepts,2026-07-21 13h18.25.567133 +0200,,493.69932419998804,495.41459220001707,495.41459220001707,496.6549270999967,,,,59.864502684314424,492.94172750000143,493.69932419998804,,,492.897289799992,493.6838979999884,,,ball\ball_07.jpg,,,,,,,,,,,,,,,,,,,,,,,1,1,,None,,493.69932419998804,,,,,left,,0,,,2025.2.4,,,493.6872182000079,495.398566399992,,,493.7003373666705,494.1812253000098,,,79,0,2026-07-21_13:26:38.498362,79,30,,None,,,None,,79,79,0,79,,,,,,dog,Chien,Hund,
499.13540070003364,500.0176794999861,0.88,,,2,500.01780830003554,500.0178728000028,,,chair,4,4,,,,,,,,,,,,,,,,,,,,,,,,,,,,,,None,,,None,2026-07-21_13h18.24.447,23,TSRlearn_localizer-concepts,2026-07-21 13h18.25.567133 +0200,,497.4237803000142,499.1517249000026,499.1517249000026,500.0843604999827,,,,59.864502684314424,496.6549270999967,497.4237803000142,,,496.63851439999416,497.40274360001786,,,chair\chair_23.jpg,,,,,,,,,,,,,,,,,,,,,,,0,1,,None,,497.4237803000142,,,,,None,,0,,,2025.2.4,,,497.4071110000368,499.1353162000305,,,497.4191196666836,497.9843320000218,,,80,0,2026-07-21_13:26:42.211562,80,31,,None,,,None,,80,80,0,80,,,,,,chair,Chaise,Stuhl,
502.5497446000227,503.69500529998913,1.13,,,2,503.69508520001546,503.69512270000996,,,flower,6,6,,,,,,,,,,,,,,,,,,,,,,,,,,,,,,None,,,None,2026-07-21_13h18.24.447,40,TSRlearn_localizer-concepts,2026-07-21 13h18.25.567133 +0200,,500.83551850001095,502.56758440000704,502.56758440000704,503.7315556000103,,,,59.864502684314424,500.0843604999827,500.83551850001095,,,500.06494230002863,500.816984300036,,,flower\flower_40.jpg,,,,,,,,,,,,,,,,,,,,,,,0,1,,None,,500.83551850001095,,,,,None,,0,,,2025.2.4,,,500.82029040000634,502.5496693000314,,,500.83339086670117,501.7329101000214,,,81,0,2026-07-21_13:26:45.640996,81,32,,None,,,None,,81,81,0,81,,,,,,flower,Fleur,Blume,
506.1807966000051,507.4144764000084,1.22,,,2,507.4145606000093,507.4145967999939,,,hand,8,9,,,,,,,,,,,,,,,,,,,,,,,,,,,,,,None,,,r,2026-07-21_13h18.24.447,18,TSRlearn_localizer-concepts,2026-07-21 13h18.25.567133 +0200,,504.484346000012,506.1970664000255,506.1970664000255,507.44699020002736,,,,59.864502684314424,503.7315556000103,504.484346000012,,,503.72047140001087,504.4651379000279,,,hand\hand_18.jpg,,,,,,,,,,,,,,,,,,,,,,,1,1,,None,,504.484346000012,,,,,right,,0,,,2025.2.4,,,504.4705815000343,506.1807015000377,,,504.48149466666314,505.028742399998,,,82,0,2026-07-21_13:26:49.288191,82,33,,None,,,None,,82,82,0,82,,,,,,house,Maison,Haus,
509.89757169998484,510.68140659999335,0.77,,,2,510.68148090003524,510.68151610001223,,,bicycle,2,2,,,,,,,,,,,,,,,,,,,,,,,,,,,,,,None,,,None,2026-07-21_13h18.24.447,31,TSRlearn_localizer-concepts,2026-07-21 13h18.25.567133 +0200,,508.19960049999645,509.91371100000106,509.91371100000106,510.7194168000133,,,,59.864502684314424,507.44699020002736,508.19960049999645,,,507.4328840000089,508.1824196000234,,,bicycle\bicycle_31.jpg,,,,,,,,,,,,,,,,,,,,,,,0,1,,None,,508.19960049999645,,,,,None,,0,,,2025.2.4,,,508.1847213000292,509.8974680000101,,,508.1987958666907,508.9166811000323,,,83,0,2026-07-21_13:26:53.003625,83,34,,None,,,None,,83,83,0,83,,,,,,bicycle,Vélo,Fahrrad,
513.176092299982,514.2260832000175,1.04,,,2,514.2261625999818,514.2262059000204,,,hand,8,8,,,,,,,,,,,,,,,,,,,,,,,,,,,,,,None,,,None,2026-07-21_13h18.24.447,14,TSRlearn_localizer-concepts,2026-07-21 13h18.25.567133 +0200,,511.4821949999896,513.1921067000367,513.1921067000367,514.2669495000155,,,,59.864502684314424,510.7194168000133,511.4821949999896,,,510.70678200002294,511.4648670000024,,,hand\hand_14.jpg,,,,,,,,,,,,,,,,,,,,,,,0,1,,None,,511.4821949999896,,,,,None,,0,,,2025.2.4,,,511.4687366000144,513.1760218000272,,,511.481247766704,511.96551740000723,,,84,0,2026-07-21_13:26:56.276052,84,35,,None,,,None,,84,84,0,84,,,,,,hand,Main,Hand,
516.7296998000238,517.6127439999836,0.88,,,2,517.6128241000115,517.6128611000022,,,jacket,10,10,,,,,,,,,,,,,,,,,,,,,,,,,,,,,,None,,,None,2026-07-21_13h18.24.447,17,TSRlearn_localizer-concepts,2026-07-21 13h18.25.567133 +0200,,515.0300433000084,516.7458226000308,516.7458226000308,517.6618680999964,,,,59.864502684314424,514.2669495000155,515.0300433000084,,,514.2591972000082,515.0084650000208,,,jacket\jacket_17.jpg,,,,,,,,,,,,,,,,,,,,,,,0,1,,None,,515.0300433000084,,,,,None,,0,,,2025.2.4,,,515.012783800019,516.7296273999964,,,515.0249394666791,515.5579288000008,,,85,0,2026-07-21_13:26:59.823584,85,36,,None,,,None,,85,85,0,85,,,,,,jacket,Veste,Jacke,
520.127518400026,521.1604587000329,1.02,,,2,521.1605376999942,521.1605728000286,,,house,9,9,,,,,,,,,,,,,,,,,,,,,,,,,,,,,,None,,,None,2026-07-21_13h18.24.447,17,TSRlearn_localizer-concepts,2026-07-21 13h18.25.567133 +0200,,518.4139282000251,520.1437710000318,520.1437710000318,521.2408847000333,,,,59.864502684314424,517.6618680999964,518.4139282000251,,,517.6474362000008,518.3958599999896,,,house\house_17.jpg,,,,,,,,,,,,,,,,,,,,,,,0,1,,None,,518.4139282000251,,,,,None,,0,,,2025.2.4,,,518.4006287000375,520.1274389000027,,,518.4123160666825,518.9620127999806,,,86,0,2026-07-21_13:27:03.218503,86,37,,None,,,None,,86,86,0,86,,,,,,house,Maison,Haus,
523.7062235000194,524.9273364000255,1.21,,,2,524.9274595000315,524.927505300031,,,chair,4,4,,,,,,,,,,,,,,,,,,,,,,,,,,,,,,None,,,None,2026-07-21_13h18.24.447,45,TSRlearn_localizer-concepts,2026-07-21 13h18.25.567133 +0200,,522.0059727000189,523.7225414999994,523.7225414999994,525.0459165000357,,,,59.864502684314424,521.2408847000333,522.0059727000189,,,521.2031641000067,521.9897869999986,,,chair\chair_45.jpg,,,,,,,,,,,,,,,,,,,,,,,0,1,,None,,522.0059727000189,,,,,None,,0,,,2025.2.4,,,521.993414800032,523.7061522000004,,,522.0062548666649,522.5558396999841,,,87,0,2026-07-21_13:27:06.797520,87,38,,None,,,None,,87,87,0,87,,,,,,chair,Chaise,Stuhl,
527.4930031999829,528.4759527000133,0.97,,,2,528.4760371000157,528.4760777000338,,,ball,1,1,,,,,,,,,,,,,,,,,,,,,,,,,,,,,,None,,,None,2026-07-21_13h18.24.447,5,TSRlearn_localizer-concepts,2026-07-21 13h18.25.567133 +0200,,525.8103617000161,527.5081927999854,527.5081927999854,528.5317211000365,,,,59.864502684314424,525.0459165000357,525.8103617000161,,,525.0124917000066,525.7924191000056,,,ball\ball_05.jpg,,,,,,,,,,,,,,,,,,,,,,,0,1,,None,,525.8103617000161,,,,,None,,0,,,2025.2.4,,,525.7954159000074,527.492929,,,525.8088561666702,526.581430500024,,,88,0,2026-07-21_13:27:10.602551,88,39,,None,,,None,,88,88,0,88,,,,,,ball,Ballon,Ball,
530.9916931000189,531.9718813000363,0.98,,,2,531.9719617000083,531.9720026000286,,,dog,5,5,,,,,,,,,,,,,,,,,,,,,,,,,,,,,,None,,,None,2026-07-21_13h18.24.447,32,TSRlearn_localizer-concepts,2026-07-21 13h18.25.567133 +0200,,529.2912127000163,531.0040048999945,531.0040048999945,532.0154830000247,,,,59.864502684314424,528.5317211000365,529.2912127000163,,,528.5147557000164,529.2760142000043,,,dog\dog_32.jpg,,,,,,,,,,,,,,,,,,,,,,,0,1,,None,,529.2912127000163,,,,,None,,0,,,2025.2.4,,,529.2793451999896,530.9914959000307,,,529.2924187666542,529.7751711999881,,,89,0,2026-07-21_13:27:14.088356,89,40,,None,,,None,,89,89,0,89,,,,,,dog,Chien,Hund,
534.4729337000172,535.6572300000116,1.17,,,2,535.657351700007,535.6574016000377,,,bread,3,3,,,,,,,,,,,,,,,,,,,,,,,,,,,,,,None,,,None,2026-07-21_13h18.24.447,19,TSRlearn_localizer-concepts,2026-07-21 13h18.25.567133 +0200,,532.7692619999871,534.489134500036,534.489134500036,535.7051356000011,,,,59.864502684314424,532.0154830000247,532.7692619999871,,,532.0072417000192,532.7526848000125,,,bread\bread_19.jpg,,,,,,,,,,,,,,,,,,,,,,,0,1,,None,,532.7692619999871,,,,,None,,0,,,2025.2.4,,,532.7557289000251,534.472847099998,,,532.7691288666722,533.6855446000118,,,90,0,2026-07-21_13:27:17.572118,90,41,,None,,,None,,90,90,0,90,,,,,,bread,Pain,Brot,
538.139842100034,539.171453899995,1.02,,,2,539.1715416000225,539.1715864000143,,,bicycle,2,2,,,,,,,,,,,,,,,,,,,,,,,,,,,,,,None,,,None,2026-07-21_13h18.24.447,16,TSRlearn_localizer-concepts,2026-07-21 13h18.25.567133 +0200,,536.4551517000073,538.1562307000277,538.1562307000277,539.2475143999909,,,,59.864502684314424,535.7051356000011,536.4551517000073,,,535.6906429000082,536.4390421999851,,,bicycle\bicycle_16.jpg,,,,,,,,,,,,,,,,,,,,,,,0,1,,None,,536.4551517000073,,,,,None,,0,,,2025.2.4,,,536.4416171000339,538.1397652000305,,,536.4554765666874,537.1550065000192,,,91,0,2026-07-21_13:27:21.261770,91,42,,None,,,None,,91,91,0,91,,,,,,bicycle,Vélo,Fahrrad,
541.7056712000049,542.4661574999918,0.76,,,2,542.4662543000304,542.4662999000284,,,dog,5,5,,,,,,,,,,,,,,,,,,,,,,,,,,,,,,None,,,None,2026-07-21_13h18.24.447,44,TSRlearn_localizer-concepts,2026-07-21 13h18.25.567133 +0200,,540.0041152000194,541.7177993000369,541.7177993000369,542.494865900022,,,,59.864502684314424,539.2475143999909,540.0041152000194,,,539.2242905999883,539.9883286000113,,,dog\dog_44.jpg,,,,,,,,,,,,,,,,,,,,,,,0,1,,None,,540.0041152000194,,,,,None,,0,,,2025.2.4,,,539.9922502000118,541.7055946000037,,,540.0047941666601,540.5004743000027,,,92,0,2026-07-21_13:27:24.804149,92,43,,None,,,None,,92,92,0,92,,,,,,dog,Chien,Hund,
544.9545599999838,546.1708510000026,1.21,,,2,546.170939899981,546.1709816000075,,,house,9,9,,,,,,,,,,,,,,,,,,,,,,,,,,,,,,None,,,None,2026-07-21_13h18.24.447,20,TSRlearn_localizer-concepts,2026-07-21 13h18.25.567133 +0200,,543.2555974000134,544.9704860000056,544.9704860000056,546.2167828999809,,,,59.864502684314424,542.494865900022,543.2555974000134,,,542.4835924000363,543.2371735000052,,,house\house_20.jpg,,,,,,,,,,,,,,,,,,,,,,,0,1,,None,,543.2555974000134,,,,,None,,0,,,2025.2.4,,,543.2414239000063,544.9544513000292,,,543.2535956666727,543.7864100000006,,,93,0,2026-07-21_13:27:28.051501,93,44,,None,,,None,,93,93,0,93,,,,,,house,Maison,Haus,
548.6853280999931,549.4537508999929,0.76,,,2,549.4538493999862,549.4538930000272,,,flower,6,6,,,,,,,,,,,,,,,,,,,,,,,,,,,,,,None,,,None,2026-07-21_13h18.24.447,14,TSRlearn_localizer-concepts,2026-07-21 13h18.25.567133 +0200,,546.9701806000085,548.7013445000048,548.7013445000048,549.4989347000374,,,,59.864502684314424,546.2167828999809,546.9701806000085,,,546.2024278999888,546.9538310000207,,,flower\flower_14.jpg,,,,,,,,,,,,,,,,,,,,,,,0,1,,None,,546.9701806000085,,,,,None,,0,,,2025.2.4,,,546.9567951000063,548.6852467000135,,,546.9701632667022,547.8697464999859,,,94,0,2026-07-21_13:27:31.773418,94,45,,None,,,None,,94,94,0,94,,,,,,flower,Fleur,Blume,
551.9481691999827,552.9628742000205,1,,,2,552.962951500027,552.9629943000036,,,house,9,10,,,,,,,,,,,,,,,,,,,,,,,,,,,,,,None,,,r,2026-07-21_13h18.24.447,34,TSRlearn_localizer-concepts,2026-07-21 13h18.25.567133 +0200,,550.2600552000222,551.9642766999896,551.9642766999896,553.036507199984,,,,59.864502684314424,549.4989347000374,550.2600552000222,,,549.4862660000217,550.2360157000367,,,house\house_34.jpg,,,,,,,,,,,,,,,,,,,,,,,1,1,,None,,550.2600552000222,,,,,left,,0,,,2025.2.4,,,550.2411657000193,551.9480964000104,,,550.2524264666756,550.7848502999987,,,95,0,2026-07-21_13:27:35.055570,95,46,,None,,,None,,95,95,0,95,,,,,,jacket,Veste,Jacke,
555.5163907000097,556.5176269999938,1,,,2,556.5177685000235,556.517842900008,,,hammer,7,7,,,,,,,,,,,,,,,,,,,,,,,,,,,,,,None,,,None,2026-07-21_13h18.24.447,42,TSRlearn_localizer-concepts,2026-07-21 13h18.25.567133 +0200,,553.801348500012,555.5326279000146,555.5326279000146,556.5772967999801,,,,59.864502684314424,553.036507199984,553.801348500012,,,553.0027452000068,553.7852076999843,,,hammer\hammer_42.jpg,,,,,,,,,,,,,,,,,,,,,,,0,1,,None,,553.801348500012,,,,,None,,0,,,2025.2.4,,,553.789153699996,555.5163039999898,,,553.8016495666855,554.3175772000104,,,96,0,2026-07-21_13:27:38.593142,96,47,,None,,,None,,96,96,0,96,,,,,,hammer,Marteau,Hammer,
559.032164400036,559.7995371000143,0.75,,,2,559.799619700003,559.7996701000375,,,ball,1,1,,,,,,,,,,,,,,,,,,,,,,,,,,,,,,None,,,None,2026-07-21_13h18.24.447,28,TSRlearn_localizer-concepts,2026-07-21 13h18.25.567133 +0200,,557.3331414000131,559.0492047999869,559.0492047999869,559.8469667999889,,,,59.864502684314424,556.5772967999801,557.3331414000131,,,556.5549951000139,557.3174432000378,,,ball\ball_28.jpg,,,,,,,,,,,,,,,,,,,,,,,0,1,,None,,557.3331414000131,,,,,None,,0,,,2025.2.4,,,557.3206490000011,559.0320746999932,,,557.3337029666911,558.1151274000295,,,97,0,2026-07-21_13:27:42.133932,97,48,,None,,,None,,97,97,0,97,,,,,,ball,Ballon,Ball,
562.2992563000298,563.51541490003,1.21,,,2,563.515499900037,563.5155385999824,,,hand,8,8,,,,,,,,,,,,,,,,,,,,,,,,,,,,,,None,,,None,2026-07-21_13h18.24.447,10,TSRlearn_localizer-concepts,2026-07-21 13h18.25.567133 +0200,,560.5976544999867,562.3150279999827,562.3150279999827,563.5749661999871,,,,59.864502684314424,559.8469667999889,560.5976544999867,,,559.8339648999972,560.581632699992,,,hand\hand_10.jpg,,,,,,,,,,,,,,,,,,,,,,,0,1,,None,,560.5976544999867,,,,,None,,0,,,2025.2.4,,,560.5850797999883,562.299182399991,,,560.5980484666691,561.0825161000248,,,98,0,2026-07-21_13:27:45.403602,98,49,,None,,,None,,98,98,0,98,,,,,,hand,Main,Hand,
566.0149930000189,567.0483109999914,1.02,,,2,567.0484155000304,584.2240152999875,567.0643112999969,582.0739583999966,jacket,10,10,,,,,,,,,,,,,,,,,,,,,,,,,,,,,0.0777712999843061,r,2.0894659000332467,582.0562593000359,None,2026-07-21_13h18.24.447,35,TSRlearn_localizer-concepts,2026-07-21 13h18.25.567133 +0200,,564.3334711000207,566.0308233000105,566.0308233000105,567.0643112999969,,,,59.864502684314424,563.5749661999871,564.3334711000207,,,563.559823299991,564.3136503000278,,,jacket\jacket_35.jpg,582.0562593000359,,,,,,,,,,,,,,,,,,,,,,0,1,,None,,564.3334711000207,,,,,None,,0,567.0643112999969,582.0739583999966,2025.2.4,,,564.3185859000077,566.0148818999878,,,564.3300736666463,564.8644976000069,,,99,0,2026-07-21_13:27:49.131601,99,50,0.0777712999843061,r,2.0894659000332467,,None,,99,99,0,99,,,,,,jacket,Veste,Jacke,
586.7251051000203,587.5393046999816,0.81,,,3,587.5447162000346,587.5447639999911,,,chair,4,4,,,,,,,,,,,,,,,,,,,,,,,,,,,,,,None,,,None,2026-07-21_13h18.24.447,14,TSRlearn_localizer-concepts,2026-07-21 13h18.25.567133 +0200,,585.0237064000103,586.7413821000373,586.7413821000373,587.5779277000111,,,,59.864502684314424,584.265764700016,585.0237064000103,,,584.2508010999882,585.0071520000347,,,chair\chair_14.jpg,,,,,,,,,,,,,,,,,,,,,,,0,1,,None,,585.0237064000103,,,,,None,,0,,,2025.2.4,,,585.0108504000236,586.7249845000333,,,585.0235703666733,585.589751499996,,,100,0,2026-07-21_13:28:09.822400,100,1,,None,,,None,,100,100,0,100,,,,,,chair,Chaise,Stuhl,
590.0568223000155,591.2382320000324,1.17,,,3,591.2383224000223,591.2383691000286,,,bicycle,2,6,,,,,,,,,,,,,,,,,,,,,,,,,,,,,,None,,,r,2026-07-21_13h18.24.447,6,TSRlearn_localizer-concepts,2026-07-21 13h18.25.567133 +0200,,588.3398655999918,590.0723541000043,590.0723541000043,591.2695834999904,,,,59.864502684314424,587.5779277000111,588.3398655999918,,,587.5636127000325,588.32439720002,,,bicycle\bicycle_06.jpg,,,,,,,,,,,,,,,,,,,,,,,1,1,,None,,588.3398655999918,,,,,left,,0,,,2025.2.4,,,588.3280617999844,590.0567335000378,,,588.3407915666505,589.2218891000375,,,101,0,2026-07-21_13:28:13.134562,101,2,,None,,,None,,101,101,0,101,,,,,,flower,Fleur,Blume,
593.7374559000018,594.970239599992,1.23,,,3,594.9703220000374,594.9703621999943,,,dog,5,5,,,,,,,,,,,,,,,,,,,,,,,,,,,,,,None,,,None,2026-07-21_13h18.24.447,30,TSRlearn_localizer-concepts,2026-07-21 13h18.25.567133 +0200,,592.0215893000131,593.7543667000136,593.7543667000136,594.9990257000318,,,,59.864502684314424,591.2695834999904,592.0215893000131,,,591.255215800018,592.0052727999864,,,dog\dog_30.jpg,,,,,,,,,,,,,,,,,,,,,,,0,1,,None,,592.0215893000131,,,,,None,,0,,,2025.2.4,,,592.0086571000284,593.7373918000376,,,592.0216826666767,592.5042082000291,,,102,0,2026-07-21_13:28:16.826218,102,3,,None,,,None,,102,102,0,102,,,,,,dog,Chien,Hund,
597.4546117000282,598.5871275999816,1.13,,,3,598.5872349999845,598.5872802999802,,,jacket,10,10,,,,,,,,,,,,,,,,,,,,,,,,,,,,,,None,,,None,2026-07-21_13h18.24.447,27,TSRlearn_localizer-concepts,2026-07-21 13h18.25.567133 +0200,,595.7554506000015,597.471263399988,597.471263399988,598.6214399000164,,,,59.864502684314424,594.9990257000318,595.7554506000015,,,594.9863099000067,595.738384700031,,,jacket\jacket_27.jpg,,,,,,,,,,,,,,,,,,,,,,,0,1,,None,,595.7554506000015,,,,,None,,0,,,2025.2.4,,,595.7429731999873,597.4545216999832,,,595.7548395666565,596.3029311000137,,,103,0,2026-07-21_13:28:20.555660,103,4,,None,,,None,,103,103,0,103,,,,,,jacket,Veste,Jacke,
601.1019053999917,602.1335216999869,1.02,,,3,602.1336197000346,602.1336552000139,,,house,9,9,,,,,,,,,,,,,,,,,,,,,,,,,,,,,,None,,,None,2026-07-21_13h18.24.447,13,TSRlearn_localizer-concepts,2026-07-21 13h18.25.567133 +0200,,599.391006299993,601.1181196999969,601.1181196999969,602.1578216000344,,,,59.864502684314424,598.6214399000164,599.391006299993,,,598.6066037000273,599.3704976000008,,,house\house_13.jpg,,,,,,,,,,,,,,,,,,,,,,,0,1,,None,,599.391006299993,,,,,None,,0,,,2025.2.4,,,599.3756063000183,601.1018261000281,,,599.3869272666673,599.9367131000035,,,104,0,2026-07-21_13:28:24.178075,104,5,,None,,,None,,104,104,0,104,,,,,,house,Maison,Haus,
604.6340089000296,605.5686384,0.92,,,3,605.5687217999948,605.5687656000373,,,hammer,7,7,,,,,,,,,,,,,,,,,,,,,,,,,,,,,,None,,,None,2026-07-21_13h18.24.447,27,TSRlearn_localizer-concepts,2026-07-21 13h18.25.567133 +0200,,602.9180917000049,604.6504635000019,604.6504635000019,605.6467303999816,,,,59.864502684314424,602.1578216000344,602.9180917000049,,,602.150055999984,602.9026397999842,,,hammer\hammer_27.jpg,,,,,,,,,,,,,,,,,,,,,,,0,1,,None,,602.9180917000049,,,,,None,,0,,,2025.2.4,,,602.906264899997,604.633935299993,,,602.9190435666862,603.4340525000007,,,105,0,2026-07-21_13:28:27.714457,105,6,,None,,,None,,105,105,0,105,,,,,,hammer,Marteau,Hammer,
608.0851532000233,609.2008032000158,1.1,,,3,609.200900900003,609.2009494000231,,,flower,6,6,,,,,,,,,,,,,,,,,,,,,,,,,,,,,,None,,,None,2026-07-21_13h18.24.447,40,TSRlearn_localizer-concepts,2026-07-21 13h18.25.567133 +0200,,606.399974800006,608.1018955000327,608.1018955000327,609.2604786999873,,,,59.864502684314424,605.6467303999816,606.399974800006,,,605.6200373999891,606.3836427000351,,,flower\flower_40.jpg,,,,,,,,,,,,,,,,,,,,,,,0,1,,None,,606.399974800006,,,,,None,,0,,,2025.2.4,,,606.3865575999953,608.0850367000094,,,606.4000582666524,607.3010265000048,,,106,0,2026-07-21_13:28:31.203365,106,7,,None,,,None,,106,106,0,106,,,,,,flower,Fleur,Blume,
611.7157374999952,612.6815318000154,0.96,,,3,612.6816225000075,612.6816654999857,,,bread,3,3,,,,,,,,,,,,,,,,,,,,,,,,,,,,,,None,,,None,2026-07-21_13h18.24.447,8,TSRlearn_localizer-concepts,2026-07-21 13h18.25.567133 +0200,,610.0188217000104,611.732153000019,611.732153000019,612.7172072000103,,,,59.864502684314424,609.2604786999873,610.0188217000104,,,609.2413705000072,610.0008365000249,,,bread\bread_08.jpg,,,,,,,,,,,,,,,,,,,,,,,0,1,,None,,610.0188217000104,,,,,None,,0,,,2025.2.4,,,610.0046166999964,611.7156577000278,,,610.0170915667006,610.9484683999908,,,107,0,2026-07-21_13:28:34.817114,107,8,,None,,,None,,107,107,0,107,,,,,,bread,Pain,Brot,
615.1820605000248,616.330314300023,1.14,,,3,616.3304069000296,616.3304475999903,,,jacket,10,10,,,,,,,,,,,,,,,,,,,,,,,,,,,,,,None,,,None,2026-07-21_13h18.24.447,11,TSRlearn_localizer-concepts,2026-07-21 13h18.25.567133 +0200,,613.4824404999963,615.1970868000062,615.1970868000062,616.3712504000287,,,,59.864502684314424,612.7172072000103,613.4824404999963,,,612.7054977000225,613.4645027000224,,,jacket\jacket_11.jpg,,,,,,,,,,,,,,,,,,,,,,,0,1,,None,,613.4824404999963,,,,,None,,0,,,2025.2.4,,,613.4689454000327,615.1819853000343,,,613.4809744666602,614.0306848000037,,,108,0,2026-07-21_13:28:38.273842,108,9,,None,,,None,,108,108,0,108,,,,,,jacket,Veste,Jacke,
618.8309505000361,619.9631947000162,1.13,,,3,619.9632809000323,619.9633203999838,,,flower,6,6,,,,,,,,,,,,,,,,,,,,,,,,,,,,,,None,,,None,2026-07-21_13h18.24.447,32,TSRlearn_localizer-concepts,2026-07-21 13h18.25.567133 +0200,,617.1300596999936,618.8476575000095,618.8476575000095,620.0149581999867,,,,59.864502684314424,616.3712504000287,617.1300596999936,,,616.3592686000047,617.1133808000013,,,flower\flower_32.jpg,,,,,,,,,,,,,,,,,,,,,,,0,1,,None,,617.1300596999936,,,,,None,,0,,,2025.2.4,,,617.1164160000044,618.8308698000037,,,617.1298095666609,618.0309377000085,,,109,0,2026-07-21_13:28:41.927885,109,10,,None,,,None,,109,109,0,109,,,,,,flower,Fleur,Blume,
622.4787343000062,623.3283268000232,0.84,,,3,623.3284140999895,623.3284594999859,,,jacket,10,1,,,,,,,,,,,,,,,,,,,,,,,,,,,,,,None,,,r,2026-07-21_13h18.24.447,35,TSRlearn_localizer-concepts,2026-07-21 13h18.25.567133 +0200,,620.7798532000161,622.4947324999957,622.4947324999957,623.3750673999893,,,,59.864502684314424,620.0149581999867,620.7798532000161,,,620.0006802999997,620.7637446000008,,,jacket\jacket_35.jpg,,,,,,,,,,,,,,,,,,,,,,,1,1,,None,,620.7798532000161,,,,,left,,0,,,2025.2.4,,,620.7676623000298,622.4786616000347,,,620.78016196669,621.5630581000005,,,110,0,2026-07-21_13:28:45.571593,110,11,,None,,,None,,110,110,0,110,,,,,,ball,Ballon,Ball,
625.8453249000013,626.8786932000075,1.02,,,3,626.8787899999879,626.8788352999836,,,hand,8,8,,,,,,,,,,,,,,,,,,,,,,,,,,,,,,None,,,None,2026-07-21_13h18.24.447,36,TSRlearn_localizer-concepts,2026-07-21 13h18.25.567133 +0200,,624.127596699982,625.8605298000039,625.8605298000039,626.980576300004,,,,59.864502684314424,623.3750673999893,624.127596699982,,,623.3615476000123,624.111265900021,,,hand\hand_36.jpg,,,,,,,,,,,,,,,,,,,,,,,0,1,,None,,624.127596699982,,,,,None,,0,,,2025.2.4,,,624.1147506000125,625.8452374000335,,,624.1277140666537,624.6109858999844,,,111,0,2026-07-21_13:28:48.931702,111,12,,None,,,None,,111,111,0,111,,,,,,hand,Main,Hand,
629.4434117000201,630.6938574000378,1.25,,,3,630.6939461000147,630.6939868000336,,,ball,1,1,,,,,,,,,,,,,,,,,,,,,,,,,,,,,,None,,,None,2026-07-21_13h18.24.447,11,TSRlearn_localizer-concepts,2026-07-21 13h18.25.567133 +0200,,627.743231200031,629.4612639999832,629.4612639999832,630.7572593000368,,,,59.864502684314424,626.980576300004,627.743231200031,,,626.9472440999816,627.7269579999847,,,ball\ball_11.jpg,,,,,,,,,,,,,,,,,,,,,,,0,1,,None,,627.743231200031,,,,,None,,0,,,2025.2.4,,,627.7303463999997,629.4433234999888,,,627.743400666692,628.511255600024,,,112,0,2026-07-21_13:28:52.537211,112,13,,None,,,None,,112,112,0,112,,,,,,ball,Ballon,Ball,
633.2266043000272,634.1079827999929,0.88,,,3,634.108061100007,634.1081000000122,,,bread,3,3,,,,,,,,,,,,,,,,,,,,,,,,,,,,,,None,,,None,2026-07-21_13h18.24.447,37,TSRlearn_localizer-concepts,2026-07-21 13h18.25.567133 +0200,,631.5089622000232,633.2414824999869,633.2414824999869,634.1347514999798,,,,59.864502684314424,630.7572593000368,631.5089622000232,,,630.7416722000344,631.4934953000047,,,bread\bread_37.jpg,,,,,,,,,,,,,,,,,,,,,,,0,1,,None,,631.5089622000232,,,,,None,,0,,,2025.2.4,,,631.4969126000069,633.2265093000024,,,631.5099429666918,632.4427795000374,,,113,0,2026-07-21_13:28:56.313894,113,14,,None,,,None,,113,113,0,113,,,,,,bread,Pain,Brot,
636.5917704000021,637.8089517999906,1.21,,,3,637.8090378000052,637.8090812999872,,,bicycle,2,2,,,,,,,,,,,,,,,,,,,,,,,,,,,,,,None,,,None,2026-07-21_13h18.24.447,46,TSRlearn_localizer-concepts,2026-07-21 13h18.25.567133 +0200,,634.8911247000215,636.6069872999797,636.6069872999797,637.8650164999999,,,,59.864502684314424,634.1347514999798,634.8911247000215,,,634.1229390000226,634.8758586000185,,,bicycle\bicycle_46.jpg,,,,,,,,,,,,,,,,,,,,,,,0,1,,None,,634.8911247000215,,,,,None,,0,,,2025.2.4,,,634.8781656000065,636.5916965000215,,,634.8922881666842,635.5906159000006,,,114,0,2026-07-21_13:28:59.691386,114,15,,None,,,None,,114,114,0,114,,,,,,bicycle,Vélo,Fahrrad,
640.3398868000368,641.3224733999814,0.97,,,3,641.322590900003,641.3226538000163,,,dog,5,5,,,,,,,,,,,,,,,,,,,,,,,,,,,,,,None,,,None,2026-07-21_13h18.24.447,32,TSRlearn_localizer-concepts,2026-07-21 13h18.25.567133 +0200,,638.6282868999988,640.3557730999892,640.3557730999892,641.4864328000112,,,,59.864502684314424,637.8650164999999,638.6282868999988,,,637.8526697999914,638.6095810999977,,,dog\dog_32.jpg,,,,,,,,,,,,,,,,,,,,,,,0,1,,None,,638.6282868999988,,,,,None,,0,,,2025.2.4,,,638.6140535000013,640.3398112999857,,,638.6259858666492,639.1105088000186,,,115,0,2026-07-21_13:29:03.421651,115,16,,None,,,None,,115,115,0,115,,,,,,dog,Chien,Hund,
643.9550177000347,645.187787300034,1.23,,,3,645.1878670000006,645.187907900021,,,ball,1,1,,,,,,,,,,,,,,,,,,,,,,,,,,,,,,None,,,None,2026-07-21_13h18.24.447,5,TSRlearn_localizer-concepts,2026-07-21 13h18.25.567133 +0200,,642.2402749999892,643.9713954000035,643.9713954000035,645.2282947000349,,,,59.864502684314424,641.4864328000112,642.2402749999892,,,641.4207084000227,642.2222982000094,,,ball\ball_05.jpg,,,,,,,,,,,,,,,,,,,,,,,0,1,,None,,642.2402749999892,,,,,None,,0,,,2025.2.4,,,642.225483999995,643.9549462000141,,,642.2387284666804,643.0220086000045,,,116,0,2026-07-21_13:29:07.043068,116,17,,None,,,None,,116,116,0,116,,,,,,ball,Ballon,Ball,
647.6722623999813,648.6552092999918,0.98,,,3,648.6553122000187,648.6553624999942,,,house,9,9,,,,,,,,,,,,,,,,,,,,,,,,,,,,,,None,,,None,2026-07-21_13h18.24.447,12,TSRlearn_localizer-concepts,2026-07-21 13h18.25.567133 +0200,,645.9886336000054,647.6883013999905,647.6883013999905,648.6922039000201,,,,59.864502684314424,645.2282947000349,645.9886336000054,,,645.2137851000298,645.9716075999895,,,house\house_12.jpg,,,,,,,,,,,,,,,,,,,,,,,0,1,,None,,645.9886336000054,,,,,None,,0,,,2025.2.4,,,645.9760264999932,647.6721752000158,,,645.9880643666877,646.5204476999934,,,117,0,2026-07-21_13:29:10.784930,117,18,,None,,,None,,117,117,0,117,,,,,,house,Maison,Haus,
651.1529579000198,652.1856141000171,1.02,,,3,652.1856977000134,652.1857391000376,,,bicycle,2,2,,,,,,,,,,,,,,,,,,,,,,,,,,,,,,None,,,None,2026-07-21_13h18.24.447,16,TSRlearn_localizer-concepts,2026-07-21 13h18.25.567133 +0200,,649.4531336000073,651.1691208999837,651.1691208999837,652.2458270000061,,,,59.864502684314424,648.6922039000201,649.4531336000073,,,648.6779450000031,649.4368412999902,,,bicycle\bicycle_16.jpg,,,,,,,,,,,,,,,,,,,,,,,0,1,,None,,649.4531336000073,,,,,None,,0,,,2025.2.4,,,649.4392673000111,651.1528821000247,,,649.4532939666572,650.1709361000103,,,118,0,2026-07-21_13:29:14.248839,118,19,,None,,,None,,118,118,0,118,,,,,,bicycle,Vélo,Fahrrad,
654.7159642000333,655.7182377999998,1,,,3,655.7183305000071,655.7183751999983,,,bread,3,3,,,,,,,,,,,,,,,,,,,,,,,,,,,,,,None,,,None,2026-07-21_13h18.24.447,48,TSRlearn_localizer-concepts,2026-07-21 13h18.25.567133 +0200,,653.001978299988,654.7332517000032,654.7332517000032,655.7610678999918,,,,59.864502684314424,652.2458270000061,653.001978299988,,,652.2279998000013,652.9855485000298,,,bread\bread_48.jpg,,,,,,,,,,,,,,,,,,,,,,,0,1,,None,,653.001978299988,,,,,None,,0,,,2025.2.4,,,652.9890853000106,654.715894300025,,,653.0019918666842,653.9350934000104,,,119,0,2026-07-21_13:29:17.802462,119,20,,None,,,None,,119,119,0,119,,,,,,bread,Pain,Brot,
658.2175190999988,659.0018573999987,0.77,,,3,659.0019583000103,659.0020105000003,,,flower,6,6,,,,,,,,,,,,,,,,,,,,,,,,,,,,,,None,,,None,2026-07-21_13h18.24.447,14,TSRlearn_localizer-concepts,2026-07-21 13h18.25.567133 +0200,,656.5178636999917,658.2348964000121,658.2348964000121,659.1123834000318,,,,59.864502684314424,655.7610678999918,656.5178636999917,,,655.74553070002,656.5025437999866,,,flower\flower_14.jpg,,,,,,,,,,,,,,,,,,,,,,,0,1,,None,,656.5178636999917,,,,,None,,0,,,2025.2.4,,,656.5060846999986,658.2174367000116,,,656.518946166678,657.4010382000124,,,120,0,2026-07-21_13:29:21.317703,120,21,,None,,,None,,120,120,0,120,,,,,,flower,Fleur,Blume,
661.5683888000203,662.6993045000127,1.12,,,3,662.6993894000188,662.6994306999841,,,ball,1,1,,,,,,,,,,,,,,,,,,,,,,,,,,,,,,None,,,None,2026-07-21_13h18.24.447,14,TSRlearn_localizer-concepts,2026-07-21 13h18.25.567133 +0200,,659.8690295999986,661.5843947000103,661.5843947000103,662.7333868999849,,,,59.864502684314424,659.1123834000318,659.8690295999986,,,659.0724694000091,659.8516047000303,,,ball\ball_14.jpg,,,,,,,,,,,,,,,,,,,,,,,0,1,,None,,659.8690295999986,,,,,None,,0,,,2025.2.4,,,659.855017599999,661.5682491000043,,,659.8679973666478,660.6356709999964,,,121,0,2026-07-21_13:29:24.669018,121,22,,None,,,None,,121,121,0,121,,,,,,ball,Ballon,Ball,
665.1964470000239,666.0481304000132,0.84,,,3,666.0482202999992,666.0482599000097,,,house,9,9,,,,,,,,,,,,,,,,,,,,,,,,,,,,,,None,,,None,2026-07-21_13h18.24.447,7,TSRlearn_localizer-concepts,2026-07-21 13h18.25.567133 +0200,,663.4960537999868,665.2113139000139,665.2113139000139,666.1313351999852,,,,59.864502684314424,662.7333868999849,663.4960537999868,,,662.7173061000067,663.4784378000186,,,house\house_07.jpg,,,,,,,,,,,,,,,,,,,,,,,0,1,,None,,663.4960537999868,,,,,None,,0,,,2025.2.4,,,663.4829199999804,665.196368600009,,,663.4949357666812,664.0293036000221,,,122,0,2026-07-21_13:29:28.290022,122,23,,None,,,None,,122,122,0,122,,,,,,house,Maison,Haus,
668.5987220000243,669.6468524000375,1.04,,,3,669.6469422000227,669.6469817000325,,,bread,3,8,,,,,,,,,,,,,,,,,,,,,,,,,,,,,,None,,,r,2026-07-21_13h18.24.447,15,TSRlearn_localizer-concepts,2026-07-21 13h18.25.567133 +0200,,666.8836010000086,668.6151671999833,668.6151671999833,669.716640300001,,,,59.864502684314424,666.1313351999852,666.8836010000086,,,666.1029941000161,666.8659539000364,,,bread\bread_15.jpg,,,,,,,,,,,,,,,,,,,,,,,1,1,,None,,666.8836010000086,,,,,left,,0,,,2025.2.4,,,666.8699989999877,668.5986449000193,,,666.8823549666597,667.3644880999927,,,123,0,2026-07-21_13:29:31.687970,123,24,,None,,,None,,123,123,0,123,,,,,,hand,Main,Hand,
672.1811447000364,673.1798524000333,0.99,,,3,673.1799881000188,673.1800594999804,,,chair,4,4,,,,,,,,,,,,,,,,,,,,,,,,,,,,,,None,,,None,2026-07-21_13h18.24.447,45,TSRlearn_localizer-concepts,2026-07-21 13h18.25.567133 +0200,,670.4834598000161,672.1974136999925,672.1974136999925,673.255050399981,,,,59.864502684314424,669.716640300001,670.4834598000161,,,669.697476900008,670.4636426999932,,,chair\chair_45.jpg,,,,,,,,,,,,,,,,,,,,,,,0,1,,None,,670.4834598000161,,,,,None,,0,,,2025.2.4,,,670.4692890000297,672.1810653000139,,,670.480047766647,671.0461701999884,,,124,0,2026-07-21_13:29:35.273275,124,25,,None,,,None,,124,124,0,124,,,,,,chair,Chaise,Stuhl,
675.7272488999879,676.87915719999,1.14,,,3,676.8792406999855,676.8792836000212,,,hand,8,8,,,,,,,,,,,,,,,,,,,,,,,,,,,,,,None,,,None,2026-07-21_13h18.24.447,5,TSRlearn_localizer-concepts,2026-07-21 13h18.25.567133 +0200,,674.0134515999816,675.7408541000332,675.7408541000332,676.911560699984,,,,59.864502684314424,673.255050399981,674.0134515999816,,,673.2398069000337,673.99718820001,,,hand\hand_05.jpg,,,,,,,,,,,,,,,,,,,,,,,0,1,,None,,674.0134515999816,,,,,None,,0,,,2025.2.4,,,674.0010734000243,675.7271779000293,,,674.0135079666545,674.4951621000073,,,125,0,2026-07-21_13:29:38.811685,125,26,,None,,,None,,125,125,0,125,,,,,,hand,Main,Hand,
679.34597080003,680.3767570999917,1.02,,,3,680.376854000031,680.376899600029,,,chair,4,4,,,,,,,,,,,,,,,,,,,,,,,,,,,,,,None,,,None,2026-07-21_13h18.24.447,23,TSRlearn_localizer-concepts,2026-07-21 13h18.25.567133 +0200,,677.6608156000148,679.3619534000172,679.3619534000172,680.4071354999905,,,,59.864502684314424,676.911560699984,677.6608156000148,,,676.8954006999847,677.6445859000087,,,chair\chair_23.jpg,,,,,,,,,,,,,,,,,,,,,,,0,1,,None,,677.6608156000148,,,,,None,,0,,,2025.2.4,,,677.648281700036,679.3458365999977,,,677.6610345667034,678.2174763000221,,,126,0,2026-07-21_13:29:42.468196,126,27,,None,,,None,,126,126,0,126,,,,,,chair,Chaise,Stuhl,
682.8607878999901,683.760614400031,0.9,,,3,683.7607145000366,683.760772300011,,,dog,5,5,,,,,,,,,,,,,,,,,,,,,,,,,,,,,,None,,,None,2026-07-21_13h18.24.447,11,TSRlearn_localizer-concepts,2026-07-21 13h18.25.567133 +0200,,681.1597481000354,682.8770936999936,682.8770936999936,683.810219499981,,,,59.864502684314424,680.4071354999905,681.1597481000354,,,680.3943629999994,681.1432739000302,,,dog\dog_11.jpg,,,,,,,,,,,,,,,,,,,,,,,0,1,,None,,681.1597481000354,,,,,None,,0,,,2025.2.4,,,681.1470973999822,682.8607072000159,,,681.1597324666839,681.6440305000287,,,127,0,2026-07-21_13:29:45.963770,127,28,,None,,,None,,127,127,0,127,,,,,,dog,Chien,Hund,
686.2751568999956,687.4079612999922,1.13,,,3,687.4080412000185,687.4080810000305,,,flower,6,6,,,,,,,,,,,,,,,,,,,,,,,,,,,,,,None,,,None,2026-07-21_13h18.24.447,27,TSRlearn_localizer-concepts,2026-07-21 13h18.25.567133 +0200,,684.5757211000309,686.2915041000233,686.2915041000233,687.4522865000181,,,,59.864502684314424,683.810219499981,684.5757211000309,,,683.796216799994,684.5588789000176,,,flower\flower_27.jpg,,,,,,,,,,,,,,,,,,,,,,,0,1,,None,,684.5757211000309,,,,,None,,0,,,2025.2.4,,,684.5619947999949,686.2750818000059,,,684.5753399666903,685.4583144999924,,,128,0,2026-07-21_13:29:49.366854,128,29,,None,,,None,,128,128,0,128,,,,,,flower,Fleur,Blume,
689.9090333000058,691.0083503000205,1.09,,,3,691.0084514000337,691.0085025000153,,,hand,8,8,,,,,,,,,,,,,,,,,,,,,,,,,,,,,,None,,,None,2026-07-21_13h18.24.447,10,TSRlearn_localizer-concepts,2026-07-21 13h18.25.567133 +0200,,688.2075029999833,689.9238419000176,689.9238419000176,691.1240913000074,,,,59.864502684314424,687.4522865000181,688.2075029999833,,,687.4397842999897,688.1910645000171,,,hand\hand_10.jpg,,,,,,,,,,,,,,,,,,,,,,,0,1,,None,,688.2075029999833,,,,,None,,0,,,2025.2.4,,,688.1943189000012,689.9089455000358,,,688.2075688666703,688.6906913000275,,,129,0,2026-07-21_13:29:53.008921,129,30,,None,,,None,,129,129,0,129,,,,,,hand,Main,Hand,
693.5911710000364,694.7226164999884,1.12,,,3,694.7227003999869,694.7227397999959,,,dog,5,5,,,,,,,,,,,,,,,,,,,,,,,,,,,,,,None,,,None,2026-07-21_13h18.24.447,44,TSRlearn_localizer-concepts,2026-07-21 13h18.25.567133 +0200,,691.8760320000001,693.607454299985,693.607454299985,694.7812995000277,,,,59.864502684314424,691.1240913000074,691.8760320000001,,,691.0700290999957,691.8581524000037,,,dog\dog_44.jpg,,,,,,,,,,,,,,,,,,,,,,,0,1,,None,,691.8760320000001,,,,,None,,0,,,2025.2.4,,,691.8620465000276,693.5910540000186,,,691.8745554667005,692.3639414000208,,,130,0,2026-07-21_13:29:56.680726,130,31,,None,,,None,,130,130,0,130,,,,,,dog,Chien,Hund,
697.2384997000336,698.4710507999989,1.23,,,3,698.4711309000268,698.471171799989,,,jacket,10,10,,,,,,,,,,,,,,,,,,,,,,,,,,,,,,None,,,None,2026-07-21_13h18.24.447,17,TSRlearn_localizer-concepts,2026-07-21 13h18.25.567133 +0200,,695.5427146999864,697.2545905000297,697.2545905000297,698.5118419000064,,,,59.864502684314424,694.7812995000277,695.5427146999864,,,694.7621161999996,695.5234447999974,,,jacket\jacket_17.jpg,,,,,,,,,,,,,,,,,,,,,,,0,1,,None,,695.5427146999864,,,,,None,,0,,,2025.2.4,,,695.5279737000237,697.2383957999991,,,695.5398778666897,696.0717105999938,,,131,0,2026-07-21_13:30:00.337934,131,32,,None,,,None,,131,131,0,131,,,,,,jacket,Veste,Jacke,
700.9707164000138,701.8547788999858,0.87,,,3,701.8548647999996,701.8549064000254,,,hammer,7,7,,,,,,,,,,,,,,,,,,,,,,,,,,,,,,None,,,None,2026-07-21_13h18.24.447,14,TSRlearn_localizer-concepts,2026-07-21 13h18.25.567133 +0200,,699.2706889000256,700.9880339000374,700.9880339000374,701.9321808000095,,,,59.864502684314424,698.5118419000064,699.2706889000256,,,698.4991865000338,699.2544211000204,,,hammer\hammer_14.jpg,,,,,,,,,,,,,,,,,,,,,,,0,1,,None,,699.2706889000256,,,,,None,,0,,,2025.2.4,,,699.2579258999904,700.9706399000133,,,699.2708420666788,699.7874498000019,,,132,0,2026-07-21_13:30:04.068477,132,33,,None,,,None,,132,132,0,132,,,,,,hammer,Marteau,Hammer,
704.4026022999897,705.2873252999852,0.87,,,3,705.287415000028,705.2874618000351,,,ball,1,9,,,,,,,,,,,,,,,,,,,,,,,,,,,,,,None,,,r,2026-07-21_13h18.24.447,45,TSRlearn_localizer-concepts,2026-07-21 13h18.25.567133 +0200,,702.6921331000049,704.4190137999831,704.4190137999831,705.3264896000037,,,,59.864502684314424,701.9321808000095,702.6921331000049,,,701.9123291000142,702.6714795000153,,,ball\ball_45.jpg,,,,,,,,,,,,,,,,,,,,,,,1,1,,None,,702.6921331000049,,,,,right,,0,,,2025.2.4,,,702.6778247000184,704.4025245999801,,,702.6878658667013,703.236166000017,,,133,0,2026-07-21_13:30:07.488816,133,34,,None,,,None,,133,133,0,133,,,,,,house,Maison,Haus,
