ITI.started,ITI.stopped,ITI_length,ITI_prc.started,ITI_prc.stopped,block,break_3.started,break_3.stopped,breaks_instruction.started,breaks_instruction.stopped,concept,concept_num,concept_num_word,continue_button.duration,continue_button.keys,continue_button.rt,continue_button.started,continue_button_3.duration,continue_button_3.keys,continue_button_3.rt,continue_button_3.started,continue_button_4.duration,continue_button_4.keys,continue_button_4.rt,continue_button_4.started,continue_button_6.duration,continue_button_6.keys,continue_button_6.rt,continue_button_6.started,continue_button_8.duration,continue_button_8.keys,continue_button_8.rt,continue_button_8.started,continue_button_9.duration,continue_button_9.keys,continue_button_9.rt,continue_button_9.started,continue_button_break.duration,continue_button_break.keys,continue_button_break.rt,continue_button_break.started,correct_response,date,exemplar_num,expName,expStart,expVersion,fix_cross.started,fix_cross.stopped,fix_cross_2.started,fix_cross_2.stopped,fix_cross_2_prc.started,fix_cross_2_prc.stopped,fix_cross_prc.started,frameRate,image.started,image.stopped,image_prc.started,image_prc.stopped,image_pres.started,image_pres.stopped,image_pres_prc.started,image_pres_prc.stopped,image_shown,instruction_continuebreak.started,instruction_part1.started,instruction_part2.started,instruction_part3.started,instruction_part4.started,instruction_startexp.started,instruction_startexp_2.started,instructions.started,instructions.stopped,instructions_02.started,instructions_02.stopped,instructions_03.started,instructions_03.stopped,instructions_04.started,instructions_04.stopped,instructions_startexp.started,instructions_startexp.stopped,instructions_startexp_02.started,instructions_startexp_02.stopped,is_mismatch,is_prompt,key_resp.duration,key_resp.keys,key_resp.rt,key_resp.started,key_resp_prc.keys,key_resp_prc.started,key_resp_prc.stopped,match_idx,nonmatch_pres_side,notes,participant,progress_bar_breaks.started,progress_bar_breaks.stopped,psychopyVersion,settings.started,settings.stopped,sound_pres.started,sound_pres.stopped,sound_pres_prc.started,sound_pres_prc.stopped,spoken_word.started,spoken_word.stopped,spoken_word_prc.started,spoken_word_prc.stopped,thisN,thisRepN,thisRow.t,thisTrialN,trial_in_block,trials.continue_button_break.duration,trials.continue_button_break.keys,trials.continue_button_break.rt,trials.key_resp.duration,trials.key_resp.keys,trials.key_resp.rt,trials.thisIndex,trials.thisN,trials.thisRepN,trials.thisTrialN,trials_practice.key_resp_prc.keys,trials_practice.thisIndex,trials_practice.thisN,trials_practice.thisRepN,trials_practice.thisTrialN,word_shown_english,word_shown_french,word_shown_german,
,,,,,,,,,,,,,,,,,,,,,,,,,,,,,,,,,,,,,,,,,,2026-07-21_11h54.48.673,,TSRlearn_localizer-concepts,2026-07-21 11h54.49.731262 +0200,,,,,,,,,60.042858590282506,,,,,,,,,,,,,,,,,,,,,,,,,,,,,,,,,,,,,,,,,0,,,2025.2.4,0.010613700025714934,0.010678999999072403,,,,,,,,,,,,,,,,,,,,,,,,,,,,,,,,
,,,,,,,,,,,,,0.06358489999547601,g,21.809315700025763,0.5131324999965727,,,,,,,,,,,,,,,,,,,,,,,,,,2026-07-21_11h54.48.673,,TSRlearn_localizer-concepts,2026-07-21 11h54.49.731262 +0200,,,,,,,,,60.042858590282506,,,,,,,,,,,0.04273829999146983,,,,,,0.026945499994326383,22.394085900043137,,,,,,,,,,,,,,,,,,,,,,,0,,,2025.2.4,,,,,,,,,,,,,,,,,,,,,,,,,,,,,,,,,,
,,,,,,,,,,,,,,,,,0.07973699999274686,g,22.305151500040665,22.89435080002295,,,,,,,,,,,,,,,,,,,,,,2026-07-21_11h54.48.673,,TSRlearn_localizer-concepts,2026-07-21 11h54.49.731262 +0200,,,,,,,,,60.042858590282506,,,,,,,,,,,,22.410757500038017,,,,,,,22.39895709999837,22.911571400007233,,,,,,,,,,,,,,,,,,,,,0,,,2025.2.4,,,,,,,,,,,,,,,,,,,,,,,,,,,,,,,,,,
,,,,,,,,,,,,,,,,,,,,,0.11217730003409088,g,16.750983399979305,23.41160220000893,,,,,,,,,,,,,,,,,,2026-07-21_11h54.48.673,,TSRlearn_localizer-concepts,2026-07-21 11h54.49.731262 +0200,,,,,,,,,60.042858590282506,,,,,,,,,,,,,22.930287100025453,,,,,,,,22.921673900040332,40.27624510001624,,,,,,,,,,,,,,,,,,,0,,,2025.2.4,,,,,,,,,,,,,,,,,,,,,,,,,,,,,,,,,,
,,,,,,,,,,,,,,,,,,,,,,,,,,,,,,,,,0.07992970000486821,g,4.234047400008421,40.777031200006604,,,,,,2026-07-21_11h54.48.673,,TSRlearn_localizer-concepts,2026-07-21 11h54.49.731262 +0200,,,,,,,,,60.042858590282506,,,,,,,,,,,,,,40.29229790001409,,,,,,,,,40.282343700004276,45.09684730001027,,,,,,,,,,,,,,,,,0,,,2025.2.4,,,,,,,,,,,,,,,,,,,,,,,,,,,,,,,,,,
,,0.75,47.665565800038166,48.41705590003403,,,,,,,,,,,,,,,,,,,,,,,,,,,,,,,,,,,,,y,2026-07-21_11h54.48.673,,TSRlearn_localizer-concepts,2026-07-21 11h54.49.731262 +0200,,,,,,47.6818696000264,48.45793880004203,45.96418160002213,60.042858590282506,,,45.20399860001635,45.96418160002213,,,45.187081500014756,45.94956139998976,anchor.jpg,,,,,,,,,,,,,,,,,,,,,,,,,,None,45.96418160002213,47.46527540002717,1,right,,0,,,2025.2.4,,,,,45.955124200030696,47.66549159999704,,,45.96599796670877,46.51522390003083,0,0,2026-07-21_11:55:34.925752,0,,,,,,,,,,,,None,0,0,0,0,anchor,ancre,Anker,
,,0.89,50.92992409999715,51.82113659998868,,,,,,,,,,,,,,,,,,,,,,,,,,,,,,,,,,,,,r,2026-07-21_11h54.48.673,,TSRlearn_localizer-concepts,2026-07-21 11h54.49.731262 +0200,,,,,,50.942588500038255,51.86350279999897,49.236009099986404,60.042858590282506,,,48.45793880004203,49.236009099986404,,,48.44780050002737,49.20075110002654,ant.jpg,,,,,,,,,,,,,,,,,,,,,,,,,,None,49.236009099986404,50.74017870001262,1,left,,0,,,2025.2.4,,,,,49.226889300043695,50.92986820003716,,,49.233924833366956,49.980359100038186,1,0,2026-07-21_11:55:38.179693,1,,,,,,,,,,,,None,1,1,0,1,ant,fourmi,Ameise,
,,0.85,54.32171330001438,55.17263530002674,,,,,,,,,,,,,,,,,,,,,,,,,,,,,,,,,,,,,y,2026-07-21_11h54.48.673,,TSRlearn_localizer-concepts,2026-07-21 11h54.49.731262 +0200,,,,,,54.33805070002563,55.21331050002482,52.640667400031816,60.042858590282506,,,51.86350279999897,52.640667400031816,,,51.85207880003145,52.606293399992865,axe.jpg,,,,,,,,,,,,,,,,,,,,,,,,,,None,52.640667400031816,54.154305100033525,0,left,,0,,,2025.2.4,,,,,52.63047380000353,54.321662300033495,,,52.63939863333556,53.20911799999885,2,0,2026-07-21_11:55:41.585257,2,,,,,,,,,,,,None,2,2,0,2,horse,cheval,Pferd,
,,1.01,57.657480099995155,58.67553710000357,,,,,,,,,,,,,,,,,,,,,,,,,,,,,,,,,,,,,y,2026-07-21_11h54.48.673,,TSRlearn_localizer-concepts,2026-07-21 11h54.49.731262 +0200,,,,,,57.67406809999375,58.71500319999177,55.99000690004323,60.042858590282506,,,55.21331050002482,55.99000690004323,,,55.20231230003992,55.956544500018936,bus.jpg,,,,,,,,,,,,,,,,,,,,,,,,,,None,55.99000690004323,57.4910547999898,1,right,,0,,,2025.2.4,,,,,55.98017729999265,57.657409900042694,,,55.989679133352666,56.47252440004377,3,0,2026-07-21_11:55:44.935064,3,,,,,,,,,,,,None,3,3,0,3,bus,bus,Bus,
,,1.04,61.17696060001617,62.227947400009725,,,,,,,,,,,,,,,,,,,,,,,,,,,,,,,,,,,,,r,2026-07-21_11h54.48.673,,TSRlearn_localizer-concepts,2026-07-21 11h54.49.731262 +0200,,,,,,61.193574300035834,62.2670528999879,59.48847500002012,60.042858590282506,,,58.71500319999177,59.48847500002012,,,58.705064700043295,59.458898600016255,ball.jpg,,,,,,,,,,,,,,,,,,,,,,,,,,None,59.48847500002012,60.993400100036524,0,right,,0,,,2025.2.4,,,,,59.47987330000615,61.17690349998884,,,59.49209693336937,60.12605670001358,4,0,2026-07-21_11:55:48.436757,4,,,,,,,,,,,,None,4,4,0,4,face,visage,Gesicht,
,,0.99,64.72998410003493,65.73155770002631,,,,,,,,,,,,,,,,,,,,,,,,,,,,,,,,,,,,,y,2026-07-21_11h54.48.673,,TSRlearn_localizer-concepts,2026-07-21 11h54.49.731262 +0200,,,,,,64.74665300000925,65.76467760000378,63.038700000033714,60.042858590282506,,,62.2670528999879,63.038700000033714,,,62.25716660002945,63.01234660000773,banana.jpg,,,,,,,,,,,,,,,,,,,,,,,,,,None,63.038700000033714,64.54687720001675,1,right,,0,,,2025.2.4,,,,,63.03014660003828,64.72992170002544,,,63.04549683334383,63.695914400042966,5,0,2026-07-21_11:55:51.988807,5,,,,,,,,,,,,None,5,5,0,5,banana,banane,Banane,
,,0.79,68.23358430003282,69.03400220000185,,,,,,,,,,,,,,,,,,,,,,,,,,,,,,,,,,,,,r,2026-07-21_11h54.48.673,,TSRlearn_localizer-concepts,2026-07-21 11h54.49.731262 +0200,,,,,,68.24954069999512,69.07623559999047,66.53891500004102,60.042858590282506,,,65.76467760000378,66.53891500004102,,,65.7548756999895,66.50016980001237,glasses.jpg,,,,,,,,,,,,,,,,,,,,,,,,,,None,66.53891500004102,68.04995820001932,1,left,,0,,,2025.2.4,,,,,66.52884320000885,68.233527400007,,,66.53316383332324,67.06512440001825,6,0,2026-07-21_11:55:55.486431,6,,,,,,,,,,,,None,6,6,0,6,glasses,lunettes,Brille,
,,0.77,71.5193314999924,72.30391220003366,,,,,,,,,,,,,,,,,,,,,,,,,,,,,,,,,,,,,y,2026-07-21_11h54.48.673,,TSRlearn_localizer-concepts,2026-07-21 11h54.49.731262 +0200,,,,,,71.53623420000076,72.34647109999787,69.84279250004329,60.042858590282506,,,69.07623559999047,69.84279250004329,,,69.0656350000063,69.8178576999926,basket.jpg,,,,,,,,,,,,,,,,,,,,,,,,,,None,69.84279250004329,71.35207640001317,1,right,,0,,,2025.2.4,,,,,69.83416500000749,71.51928360003512,,,69.83436846669453,70.31739500002004,7,0,2026-07-21_11:55:58.797989,7,,,,,,,,,,,,None,7,7,0,7,basket,panier,Korb,
,,1.23,74.78995649999706,76.0253808000125,,,,,,,,,,,,,,,,,,,,,,,,,,,,,,,,,,,,,r,2026-07-21_11h54.48.673,,TSRlearn_localizer-concepts,2026-07-21 11h54.49.731262 +0200,,,,,,74.80652010004269,76.0618902000133,73.11605720000807,60.042858590282506,,,72.34647109999787,73.11605720000807,,,72.33675350004341,73.08713070000522,bear.jpg,,,,,,,,,,,,,,,,,,,,,,,,,,None,73.11605720000807,74.62184460001299,0,right,,0,,,2025.2.4,,,,,73.10737889999291,74.78990319999866,,,73.12031563337271,73.6716274000355,8,0,2026-07-21_11:56:02.068225,8,,,,,,,,,,,,None,8,8,0,8,milk,lait,Milch,
,,1.1,78.5257821000414,79.62661620002473,,,,,,,,,,,,,,,,,,,,,,,,,,,,,,,,,,,,,y,2026-07-21_11h54.48.673,,TSRlearn_localizer-concepts,2026-07-21 11h54.49.731262 +0200,,,,,,78.54201000003377,79.66816669999389,76.83577470004093,60.042858590282506,,,76.0618902000133,76.83577470004093,,,76.05018439999549,76.80848000000697,belt.jpg,,,,,,,,,,,,,,,,,,,,,,,,,,None,76.83577470004093,78.3413578000036,1,left,,0,,,2025.2.4,,,,,76.8268548999913,78.52572770003462,,,76.8415758333363,77.40686889999779,9,0,2026-07-21_11:56:05.783644,9,,,,,,,,,,,,None,9,9,0,9,belt,ceinture,Gürtel,
,,1.25,82.11258050001925,83.36288680002326,,,,,,,,,,,,,,,,,,,,,,,,,,,,,,,,,,,,,y,2026-07-21_11h54.48.673,,TSRlearn_localizer-concepts,2026-07-21 11h54.49.731262 +0200,,,,,,82.12934889999451,83.47029130003648,80.46115759998793,60.042858590282506,,,79.66816669999389,80.46115759998793,,,79.65778569999384,80.41036640002858,bike.jpg,,,,,,,,,,,,,,,,,,,,,,,,,,None,80.46115759998793,81.96128260000842,1,left,,0,,,2025.2.4,,,,,80.451871199999,82.11252120003337,,,80.46020199999911,81.17727079999167,10,0,2026-07-21_11:56:09.389920,10,,,,,,,,,,,,None,10,10,0,10,bicycle,vélo,Fahrrad,
,,,,,,,,,,,,,,,,,,,,,,,,,0.06321100000059232,g,24.477430499973707,83.86352210002951,,,,,,,,,,,,,,2026-07-21_11h54.48.673,,TSRlearn_localizer-concepts,2026-07-21 11h54.49.731262 +0200,,,,,,,,,60.042858590282506,,,,,,,,,,,,,,,83.47029130003648,,,,,,,,,,83.46213210001588,108.41787190001924,,,,,,,,,,,,,,,0,,,2025.2.4,,,,,,,,,,,,,,,,,,,,,,,,,,,,,,,,,,
,,,,,,,,,,,,,,,,,,,,,,,,,,,,,0.09587360004661605,r,20.832257199974265,108.91689200000837,,,,,,,,,,2026-07-21_11h54.48.673,,TSRlearn_localizer-concepts,2026-07-21 11h54.49.731262 +0200,,,,,,,,,60.042858590282506,,,,,,,,,,,,,,,,108.43556439998792,,,,,,,,,,,108.42678700003307,129.8523497999995,,,,,,,,,,,,,0,,,2025.2.4,,,,,,,,,,,,,,,,,,,,,,,,,,,,,,,,,,
132.48974660004023,133.42269249999663,0.92,,,1,133.43036180001218,133.43040840001777,,,bread,3,3,,,,,,,,,,,,,,,,,,,,,,,,,,None,,,None,2026-07-21_11h54.48.673,19,TSRlearn_localizer-concepts,2026-07-21 11h54.49.731262 +0200,,130.81416810001247,132.50696110003628,132.50696110003628,133.48331460001646,,,,60.042858590282506,130.04536960000405,130.81416810001247,,,130.02246270002797,130.78746319998754,,,bread\bread_19.jpg,,,,,,,,,,,,,,,,,,,,0,1,,None,,130.81416810001247,,,,,None,,0,,,2025.2.4,,,130.8033284000121,132.48964960000012,,,130.80387006665504,131.7369570999872,,,0,0,2026-07-21_11:56:59.767123,0,1,,None,,,None,,0,0,0,0,,,,,,bread,Pain,Brot,
135.92809490003856,137.10886909998953,1.18,,,1,137.1089427000261,137.10897649999242,,,chair,4,4,,,,,,,,,,,,,,,,,,,,,,,,,,None,,,None,2026-07-21_11h54.48.673,27,TSRlearn_localizer-concepts,2026-07-21 11h54.49.731262 +0200,,134.2681657000212,135.94216420000885,135.94216420000885,137.1909915000433,,,,60.042858590282506,133.48331460001646,134.2681657000212,,,133.45486230001552,134.21854400000302,,,chair\chair_27.jpg,,,,,,,,,,,,,,,,,,,,0,1,,None,,134.2681657000212,,,,,None,,0,,,2025.2.4,,,134.24746849999065,135.92802859999938,,,134.2513601333563,134.81050700001651,,,1,0,2026-07-21_11:57:03.205068,1,2,,None,,,None,,1,1,0,1,,,,,,chair,Chaise,Stuhl,
139.64370030001737,140.42786049999995,0.78,,,1,140.42793860001257,140.4279771000147,,,flower,6,6,,,,,,,,,,,,,,,,,,,,,,,,,,None,,,None,2026-07-21_11h54.48.673,47,TSRlearn_localizer-concepts,2026-07-21 11h54.49.731262 +0200,,137.9579267000081,139.66009820002364,139.66009820002364,140.4792291999911,,,,60.042858590282506,137.1909915000433,137.9579267000081,,,137.16169740003534,137.92627950001042,,,flower\flower_47.jpg,,,,,,,,,,,,,,,,,,,,0,1,,None,,137.9579267000081,,,,,None,,0,,,2025.2.4,,,137.94701350003015,139.6436293000006,,,137.95945773332693,138.84312730003148,,,2,0,2026-07-21_11:57:06.912745,2,3,,None,,,None,,2,2,0,2,,,,,,flower,Fleur,Blume,
142.92360550002195,144.17181080003502,1.23,,,1,144.17189430003054,144.17193860001862,,,hammer,7,7,,,,,,,,,,,,,,,,,,,,,,,,,,None,,,None,2026-07-21_11h54.48.673,42,TSRlearn_localizer-concepts,2026-07-21 11h54.49.731262 +0200,,141.24629249999998,142.9414514999953,142.9414514999953,144.20680189999985,,,,60.042858590282506,140.4792291999911,141.24629249999998,,,140.46801710000727,141.21230120002292,,,hammer\hammer_42.jpg,,,,,,,,,,,,,,,,,,,,0,1,,None,,141.24629249999998,,,,,None,,0,,,2025.2.4,,,141.23002650000853,142.92353780003032,,,141.2453721333373,141.76238309999462,,,3,0,2026-07-21_11:57:10.200983,3,4,,None,,,None,,3,3,0,3,,,,,,hammer,Marteau,Hammer,
146.66803960001562,147.90040990000125,1.23,,,1,147.90048210002715,147.9005152999889,,,jacket,10,3,,,,,,,,,,,,,,,,,,,,,,,,,,None,,,r,2026-07-21_11h54.48.673,38,TSRlearn_localizer-concepts,2026-07-21 11h54.49.731262 +0200,,144.96619519998785,146.68322910001734,146.68322910001734,147.96193140000105,,,,60.042858590282506,144.20680189999985,144.96619519998785,,,144.18906370003242,144.9495636000065,,,jacket\jacket_38.jpg,,,,,,,,,,,,,,,,,,,,1,1,,None,,144.96619519998785,,,,,left,,0,,,2025.2.4,,,144.95248909998918,146.66797180002322,,,144.9659955666905,145.8914492999902,,,4,0,2026-07-21_11:57:13.928556,4,5,,None,,,None,,4,4,0,4,,,,,,bread,Pain,Brot,
150.4204291999922,151.50682890001917,1.07,,,1,151.5069207000197,151.50697210000362,,,ball,1,1,,,,,,,,,,,,,,,,,,,,,,,,,,None,,,None,2026-07-21_11h54.48.673,45,TSRlearn_localizer-concepts,2026-07-21 11h54.49.731262 +0200,,148.7304113000282,150.44021130003966,150.44021130003966,151.56414179998683,,,,60.042858590282506,147.96193140000105,148.7304113000282,,,147.94558930001222,148.7023995000054,,,ball\ball_45.jpg,,,,,,,,,,,,,,,,,,,,0,1,,None,,148.7304113000282,,,,,None,,0,,,2025.2.4,,,148.71943130000727,150.42034120002063,,,148.7354921333686,149.50425080000423,,,5,0,2026-07-21_11:57:17.683685,5,6,,None,,,None,,5,5,0,5,,,,,,ball,Ballon,Ball,
154.02380060002906,155.00727130001178,0.98,,,1,155.00734740000917,155.00738470000215,,,house,9,9,,,,,,,,,,,,,,,,,,,,,,,,,,None,,,None,2026-07-21_11h54.48.673,17,TSRlearn_localizer-concepts,2026-07-21 11h54.49.731262 +0200,,152.3407531999983,154.03993070003344,154.03993070003344,155.125608500035,,,,60.042858590282506,151.56414179998683,152.3407531999983,,,151.5422430000035,152.3060342000099,,,house\house_17.jpg,,,,,,,,,,,,,,,,,,,,0,1,,None,,152.3407531999983,,,,,None,,0,,,2025.2.4,,,152.32518839999102,154.02371929999208,,,152.33907433332257,152.87712980003562,,,6,0,2026-07-21_11:57:21.285896,6,7,,None,,,None,,6,6,0,6,,,,,,house,Maison,Haus,
157.59270159999141,158.54358180001145,0.95,,,1,158.54366250004387,158.54370259999996,,,ball,1,1,,,,,,,,,,,,,,,,,,,,,,,,,,None,,,None,2026-07-21_11h54.48.673,7,TSRlearn_localizer-concepts,2026-07-21 11h54.49.731262 +0200,,155.89140780002344,157.60931390000042,157.60931390000042,158.5965017999988,,,,60.042858590282506,155.125608500035,155.89140780002344,,,155.08319860004121,155.875310500036,,,ball\ball_07.jpg,,,,,,,,,,,,,,,,,,,,0,1,,None,,155.89140780002344,,,,,None,,0,,,2025.2.4,,,155.87914360000286,157.59262020001188,,,155.89173926669562,156.67555159999756,,,7,0,2026-07-21_11:57:24.847362,7,8,,None,,,None,,7,7,0,7,,,,,,ball,Ballon,Ball,
161.0518376000109,162.22025260003284,1.16,,,1,162.22034330002498,162.22038350004004,,,hammer,7,7,,,,,,,,,,,,,,,,,,,,,,,,,,None,,,None,2026-07-21_11h54.48.673,34,TSRlearn_localizer-concepts,2026-07-21 11h54.49.731262 +0200,,159.35553639999125,161.06789790000767,161.06789790000767,162.28963730001124,,,,60.042858590282506,158.5965017999988,159.35553639999125,,,158.58086680003908,159.33411029999843,,,hammer\hammer_34.jpg,,,,,,,,,,,,,,,,,,,,0,1,,None,,159.35553639999125,,,,,None,,0,,,2025.2.4,,,159.3376301000244,161.0517727000406,,,159.35054476670146,159.86803720000898,,,8,0,2026-07-21_11:57:28.318256,8,9,,None,,,None,,8,8,0,8,,,,,,hammer,Marteau,Hammer,
164.75015520001762,165.99948759999825,1.25,,,1,165.99959210003726,165.99962970003253,,,hand,8,8,,,,,,,,,,,,,,,,,,,,,,,,,,None,,,None,2026-07-21_11h54.48.673,5,TSRlearn_localizer-concepts,2026-07-21 11h54.49.731262 +0200,,163.0636899000383,164.7649694000138,164.7649694000138,166.04739429999609,,,,60.042858590282506,162.28963730001124,163.0636899000383,,,162.26217350002844,163.03236090001883,,,hand\hand_05.jpg,,,,,,,,,,,,,,,,,,,,0,1,,None,,163.0636899000383,,,,,None,,0,,,2025.2.4,,,163.05055580002954,164.75009480002336,,,163.06534123334183,163.54730490001384,,,9,0,2026-07-21_11:57:32.011391,9,10,,None,,,None,,9,9,0,9,,,,,,hand,Main,Hand,
168.5043839000282,169.44502799998736,0.92,,,1,169.44516330002807,169.44520690001082,,,bicycle,2,2,,,,,,,,,,,,,,,,,,,,,,,,,,None,,,None,2026-07-21_11h54.48.673,45,TSRlearn_localizer-concepts,2026-07-21 11h54.49.731262 +0200,,166.80028349999338,168.52125530003104,168.52125530003104,169.49042700004065,,,,60.042858590282506,166.04739429999609,166.80028349999338,,,166.0359943000367,166.78436270001112,,,bicycle\bicycle_45.jpg,,,,,,,,,,,,,,,,,,,,0,1,,None,,166.80028349999338,,,,,None,,0,,,2025.2.4,,,166.7866349000251,168.50431720004417,,,166.80081056669977,167.5288653000025,,,10,0,2026-07-21_11:57:35.769148,10,11,,None,,,None,,10,10,0,10,,,,,,bicycle,Vélo,Fahrrad,
171.95477120002033,172.75578920001863,0.79,,,1,172.75585580000188,172.75588830001652,,,house,9,9,,,,,,,,,,,,,,,,,,,,,,,,,,None,,,None,2026-07-21_11h54.48.673,7,TSRlearn_localizer-concepts,2026-07-21 11h54.49.731262 +0200,,170.25110990001122,171.9709342000424,171.9709342000424,172.77976410003612,,,,60.042858590282506,169.49042700004065,170.25110990001122,,,169.46266110002762,170.22472110000672,,,house\house_07.jpg,,,,,,,,,,,,,,,,,,,,0,1,,None,,170.25110990001122,,,,,None,,0,,,2025.2.4,,,170.22934170003282,171.95470360002946,,,170.2411613666957,170.79306300001917,,,11,0,2026-07-21_11:57:39.212181,11,12,,None,,,None,,11,11,0,11,,,,,,house,Maison,Haus,
175.22461650002515,176.42572340002516,1.19,,,1,176.42580540000927,176.42585090000648,,,dog,5,5,,,,,,,,,,,,,,,,,,,,,,,,,,None,,,None,2026-07-21_11h54.48.673,39,TSRlearn_localizer-concepts,2026-07-21 11h54.49.731262 +0200,,173.55122870003106,175.24258910003118,175.24258910003118,176.4646779000177,,,,60.042858590282506,172.77976410003612,173.55122870003106,,,172.7700606000144,173.5230767999892,,,dog\dog_39.jpg,,,,,,,,,,,,,,,,,,,,0,1,,None,,173.55122870003106,,,,,None,,0,,,2025.2.4,,,173.5404951000237,175.22452960000373,,,173.55621903332263,174.0401142000337,,,12,0,2026-07-21_11:57:42.501518,12,13,,None,,,None,,12,12,0,12,,,,,,dog,Chien,Hund,
178.92858850001357,179.79603990004398,0.86,,,1,179.79612180002732,179.79616730002454,,,hand,8,8,,,,,,,,,,,,,,,,,,,,,,,,,,None,,,None,2026-07-21_11h54.48.673,18,TSRlearn_localizer-concepts,2026-07-21 11h54.49.731262 +0200,,177.23846140003297,178.94647770002484,178.94647770002484,179.84692530002212,,,,60.042858590282506,176.4646779000177,177.23846140003297,,,176.4517134000198,177.21427160000894,,,hand\hand_18.jpg,,,,,,,,,,,,,,,,,,,,0,1,,None,,177.23846140003297,,,,,None,,0,,,2025.2.4,,,177.21764049999183,178.9285222000326,,,177.23070736666367,177.72625170001993,,,13,0,2026-07-21_11:57:46.186432,13,14,,None,,,None,,13,13,0,13,,,,,,hand,Main,Hand,
182.297350000008,183.39759470004356,1.09,,,1,183.39766930002952,183.39770810003392,,,dog,5,5,,,,,,,,,,,,,,,,,,,,,,,,,,None,,,None,2026-07-21_11h54.48.673,30,TSRlearn_localizer-concepts,2026-07-21 11h54.49.731262 +0200,,180.61190930003067,182.31371350004338,182.31371350004338,183.42669769999338,,,,60.042858590282506,179.84692530002212,180.61190930003067,,,179.81568320002407,180.5954989999882,,,dog\dog_30.jpg,,,,,,,,,,,,,,,,,,,,0,1,,None,,180.61190930003067,,,,,None,,0,,,2025.2.4,,,180.59909720002906,182.29727590002585,,,180.61203486670664,181.09533000004012,,,14,0,2026-07-21_11:57:49.568679,14,15,,None,,,None,,14,14,0,14,,,,,,dog,Chien,Hund,
185.88691390003078,186.71799309999915,0.82,,,1,186.7180662000319,186.7181037000264,,,hammer,7,8,,,,,,,,,,,,,,,,,,,,,,,,,,None,,,r,2026-07-21_11h54.48.673,7,TSRlearn_localizer-concepts,2026-07-21 11h54.49.731262 +0200,,184.19160620000912,185.90237150003668,185.90237150003668,186.7813134000171,,,,60.042858590282506,183.42669769999338,184.19160620000912,,,183.41701139998622,184.16842270002235,,,hammer\hammer_07.jpg,,,,,,,,,,,,,,,,,,,,1,1,,None,,184.19160620000912,,,,,left,,0,,,2025.2.4,,,184.1717653000378,185.88684260001173,,,184.1848666666813,184.6806989000179,,,15,0,2026-07-21_11:57:53.148452,15,16,,None,,,None,,15,15,0,15,,,,,,hand,Main,Hand,
189.25293080002302,190.15400109998882,0.89,,,1,190.1540837000357,190.1541228000424,,,chair,4,4,,,,,,,,,,,,,,,,,,,,,,,,,,None,,,None,2026-07-21_11h54.48.673,45,TSRlearn_localizer-concepts,2026-07-21 11h54.49.731262 +0200,,187.54321540001547,189.2693566000089,189.2693566000089,190.20799020002596,,,,60.042858590282506,186.7813134000171,187.54321540001547,,,186.75933180004358,187.5234005000093,,,chair\chair_45.jpg,,,,,,,,,,,,,,,,,,,,0,1,,None,,187.54321540001547,,,,,None,,0,,,2025.2.4,,,187.52731360000325,189.2528633000329,,,187.539846666685,188.105838700023,,,16,0,2026-07-21_11:57:56.503067,16,17,,None,,,None,,16,16,0,16,,,,,,chair,Chaise,Stuhl,
192.6800629000063,193.9235446000239,1.23,,,1,193.9236509000184,193.92369140003575,,,jacket,10,10,,,,,,,,,,,,,,,,,,,,,,,,,,None,,,None,2026-07-21_11h54.48.673,17,TSRlearn_localizer-concepts,2026-07-21 11h54.49.731262 +0200,,190.99266370001715,192.70893280004384,192.70893280004384,193.94850190001307,,,,60.042858590282506,190.20799020002596,190.99266370001715,,,190.1949860000168,190.95496270002332,,,jacket\jacket_17.jpg,,,,,,,,,,,,,,,,,,,,0,1,,None,,190.99266370001715,,,,,None,,0,,,2025.2.4,,,190.97939240001142,192.68000019999454,,,190.98806343333177,191.53838340000948,,,17,0,2026-07-21_11:57:59.929744,17,18,,None,,,None,,17,17,0,17,,,,,,jacket,Veste,Jacke,
196.40873860003194,197.35958520002896,0.95,,,1,197.35966050002025,197.3596992000239,,,chair,4,4,,,,,,,,,,,,,,,,,,,,,,,,,,None,,,None,2026-07-21_11h54.48.673,6,TSRlearn_localizer-concepts,2026-07-21 11h54.49.731262 +0200,,194.71169930003816,196.42537000001175,196.42537000001175,197.3985030000331,,,,60.042858590282506,193.94850190001307,194.71169930003816,,,193.9382162000402,194.69222870003432,,,chair\chair_06.jpg,,,,,,,,,,,,,,,,,,,,0,1,,None,,194.71169930003816,,,,,None,,0,,,2025.2.4,,,194.696231000009,196.40865890000714,,,194.70863926667178,195.26386659999844,,,18,0,2026-07-21_11:58:03.670256,18,19,,None,,,None,,18,18,0,18,,,,,,chair,Chaise,Stuhl,
199.87848700000905,200.83398950000992,0.94,,,1,200.8340557999909,200.83408589998726,,,flower,6,6,,,,,,,,,,,,,,,,,,,,,,,,,,None,,,None,2026-07-21_11h54.48.673,14,TSRlearn_localizer-concepts,2026-07-21 11h54.49.731262 +0200,,198.1642170000123,199.8950121999951,199.8950121999951,200.8983065999928,,,,60.042858590282506,197.3985030000331,198.1642170000123,,,197.3884384999983,198.1470564000192,,,flower\flower_14.jpg,,,,,,,,,,,,,,,,,,,,0,1,,None,,198.1642170000123,,,,,None,,0,,,2025.2.4,,,198.15003680001246,199.8784196000197,,,198.1635209666604,199.04460870003095,,,19,0,2026-07-21_11:58:07.120257,19,20,,None,,,None,,19,19,0,19,,,,,,flower,Fleur,Blume,
203.35274520004168,204.47396219999064,1.12,,,1,204.4740451000398,204.4740851999959,,,bread,3,3,,,,,,,,,,,,,,,,,,,,,,,,,,None,,,None,2026-07-21_11h54.48.673,48,TSRlearn_localizer-concepts,2026-07-21 11h54.49.731262 +0200,,201.66418090002844,203.36832350003533,203.36832350003533,204.52204830001574,,,,60.042858590282506,200.8983065999928,201.66418090002844,,,200.8718952999916,201.64785050001228,,,bread\bread_48.jpg,,,,,,,,,,,,,,,,,,,,0,1,,None,,201.66418090002844,,,,,None,,0,,,2025.2.4,,,201.6510023000301,203.3526630999986,,,201.66426746669848,202.5885998000158,,,20,0,2026-07-21_11:58:10.620060,20,21,,None,,,None,,20,20,0,20,,,,,,bread,Pain,Brot,
206.9687226000242,207.9019505000324,0.92,,,1,207.9020403000177,207.90208110003732,,,bicycle,2,2,,,,,,,,,,,,,,,,,,,,,,,,,,None,,,None,2026-07-21_11h54.48.673,46,TSRlearn_localizer-concepts,2026-07-21 11h54.49.731262 +0200,,205.28309889999218,206.9858826000127,206.9858826000127,207.98393550002947,,,,60.042858590282506,204.52204830001574,205.28309889999218,,,204.4946093999897,205.26672620000318,,,bicycle\bicycle_46.jpg,,,,,,,,,,,,,,,,,,,,0,1,,None,,205.28309889999218,,,,,None,,0,,,2025.2.4,,,205.26886549999472,206.96865460003028,,,205.2831981667007,205.98735459998716,,,21,0,2026-07-21_11:58:14.243802,21,22,,None,,,None,,21,21,0,21,,,,,,bicycle,Vélo,Fahrrad,
210.43165829998907,211.59019439999247,1.16,,,1,211.5902758000302,211.59031629998935,,,ball,1,1,,,,,,,,,,,,,,,,,,,,,,,,,,None,,,None,2026-07-21_11h54.48.673,5,TSRlearn_localizer-concepts,2026-07-21 11h54.49.731262 +0200,,208.73560170002747,210.44642290001502,210.44642290001502,211.64906860003248,,,,60.042858590282506,207.98393550002947,208.73560170002747,,,207.9605264000129,208.71940679999534,,,ball\ball_05.jpg,,,,,,,,,,,,,,,,,,,,0,1,,None,,208.73560170002747,,,,,None,,0,,,2025.2.4,,,208.72276969999075,210.43158830003813,,,208.73590056668425,209.50521810003556,,,22,0,2026-07-21_11:58:17.705689,22,23,,None,,,None,,22,22,0,22,,,,,,ball,Ballon,Ball,
214.10853249998763,215.0582753000199,0.95,,,1,215.0583864999935,215.05842640000628,,,jacket,10,10,,,,,,,,,,,,,,,,,,,,,,,,,,None,,,None,2026-07-21_11h54.48.673,35,TSRlearn_localizer-concepts,2026-07-21 11h54.49.731262 +0200,,212.41314270003932,214.1253573000431,214.1253573000431,215.0837857000297,,,,60.042858590282506,211.64906860003248,212.41314270003932,,,211.62494469998637,212.3911364999949,,,jacket\jacket_35.jpg,,,,,,,,,,,,,,,,,,,,0,1,,None,,212.41314270003932,,,,,None,,0,,,2025.2.4,,,212.39546349999728,214.10845850000624,,,212.40757616667932,212.95692060003057,,,23,0,2026-07-21_11:58:21.370822,23,24,,None,,,None,,23,23,0,23,,,,,,jacket,Veste,Jacke,
217.56061039998895,218.6622190999915,1.09,,,1,218.66230790002737,218.66235820000293,,,hand,8,2,,,,,,,,,,,,,,,,,,,,,,,,,,None,,,r,2026-07-21_11h54.48.673,38,TSRlearn_localizer-concepts,2026-07-21 11h54.49.731262 +0200,,215.84269840002526,217.57731480000075,217.57731480000075,218.7368959999876,,,,60.042858590282506,215.0837857000297,215.84269840002526,,,215.07437260000734,215.82613290002337,,,hand\hand_38.jpg,,,,,,,,,,,,,,,,,,,,1,1,,None,,215.84269840002526,,,,,left,,0,,,2025.2.4,,,215.8284779000096,217.5605376000167,,,215.84255266667267,216.55974370002514,,,24,0,2026-07-21_11:58:24.805540,24,25,,None,,,None,,24,24,0,24,,,,,,bicycle,Vélo,Fahrrad,
221.18927239999175,222.0993216999923,0.91,,,1,222.09940490004374,222.09944780002115,,,flower,6,6,,,,,,,,,,,,,,,,,,,,,,,,,,None,,,None,2026-07-21_11h54.48.673,40,TSRlearn_localizer-concepts,2026-07-21 11h54.49.731262 +0200,,219.4993974000099,221.1995049000252,221.1995049000252,222.14988800004357,,,,60.042858590282506,218.7368959999876,219.4993974000099,,,218.71129850001307,219.47872800001642,,,flower\flower_40.jpg,,,,,,,,,,,,,,,,,,,,0,1,,None,,219.4993974000099,,,,,None,,0,,,2025.2.4,,,219.48165179998614,221.1892041999963,,,219.4951690666533,220.4034595999983,,,25,0,2026-07-21_11:58:28.458650,25,26,,None,,,None,,25,25,0,25,,,,,,flower,Fleur,Blume,
224.61606550001306,225.83372779999627,1.21,,,1,225.83381710003596,225.83385669998825,,,house,9,9,,,,,,,,,,,,,,,,,,,,,,,,,,None,,,None,2026-07-21_11h54.48.673,34,TSRlearn_localizer-concepts,2026-07-21 11h54.49.731262 +0200,,222.91453549999278,224.63220260001253,224.63220260001253,225.86228040000424,,,,60.042858590282506,222.14988800004357,222.91453549999278,,,222.12666680000257,222.89776730001904,,,house\house_34.jpg,,,,,,,,,,,,,,,,,,,,0,1,,None,,222.91453549999278,,,,,None,,0,,,2025.2.4,,,222.90193130000262,224.61599540000316,,,222.91427296668215,223.44784580002306,,,26,0,2026-07-21_11:58:31.871642,26,27,,None,,,None,,26,26,0,26,,,,,,house,Maison,Haus,
228.30799960001605,229.35146229999373,1.03,,,1,229.35153270000592,229.3515659000259,,,dog,5,5,,,,,,,,,,,,,,,,,,,,,,,,,,None,,,None,2026-07-21_11h54.48.673,5,TSRlearn_localizer-concepts,2026-07-21 11h54.49.731262 +0200,,226.6202961000381,228.32668150000973,228.32668150000973,229.40889890003018,,,,60.042858590282506,225.86228040000424,226.6202961000381,,,225.85216000000946,226.60334179998608,,,dog\dog_05.jpg,,,,,,,,,,,,,,,,,,,,0,1,,None,,226.6202961000381,,,,,None,,0,,,2025.2.4,,,226.60757600003853,228.30793070001528,,,226.61978776666027,227.10250380000798,,,27,0,2026-07-21_11:58:35.584034,27,28,,None,,,None,,27,27,0,27,,,,,,dog,Chien,Hund,
231.85617540002568,232.83958700002404,0.98,,,1,232.8396805000375,232.83971950004343,,,hand,8,8,,,,,,,,,,,,,,,,,,,,,,,,,,None,,,None,2026-07-21_11h54.48.673,10,TSRlearn_localizer-concepts,2026-07-21 11h54.49.731262 +0200,,230.1742443999974,231.87277459999314,231.87277459999314,232.88527880003676,,,,60.042858590282506,229.40889890003018,230.1742443999974,,,229.38505040004384,230.14814710000064,,,hand\hand_10.jpg,,,,,,,,,,,,,,,,,,,,0,1,,None,,230.1742443999974,,,,,None,,0,,,2025.2.4,,,230.1514640999958,231.8560787999886,,,230.16457066667888,230.664462500019,,,28,0,2026-07-21_11:58:39.130653,28,29,,None,,,None,,28,28,0,28,,,,,,hand,Main,Hand,
235.3294189000153,236.3903311000322,1.05,,,1,236.39039559999947,236.3904268000042,,,flower,6,6,,,,,,,,,,,,,,,,,,,,,,,,,,None,,,None,2026-07-21_11h54.48.673,32,TSRlearn_localizer-concepts,2026-07-21 11h54.49.731262 +0200,,233.6404002000345,235.35314030002337,235.35314030002337,236.43562300002668,,,,60.042858590282506,232.88527880003676,233.6404002000345,,,232.87445970001863,233.62367020000238,,,flower\flower_32.jpg,,,,,,,,,,,,,,,,,,,,0,1,,None,,233.6404002000345,,,,,None,,0,,,2025.2.4,,,233.6265692000161,235.3293541999883,,,233.64017976669518,234.52403150004102,,,29,0,2026-07-21_11:58:42.607033,29,30,,None,,,None,,29,29,0,29,,,,,,flower,Fleur,Blume,
238.8963325000368,239.67942060000496,0.77,,,1,239.67949880001834,239.67953570000827,,,hammer,7,7,,,,,,,,,,,,,,,,,,,,,,,,,,None,,,None,2026-07-21_11h54.48.673,27,TSRlearn_localizer-concepts,2026-07-21 11h54.49.731262 +0200,,237.19843270001002,238.91321970004356,238.91321970004356,239.71831230004318,,,,60.042858590282506,236.43562300002668,237.19843270001002,,,236.41167330002645,237.18081420002272,,,hammer\hammer_27.jpg,,,,,,,,,,,,,,,,,,,,0,1,,None,,237.19843270001002,,,,,None,,0,,,2025.2.4,,,237.18437140004244,238.89625709998654,,,237.19725586666416,237.71296989999246,,,30,0,2026-07-21_11:58:46.157377,30,31,,None,,,None,,30,30,0,30,,,,,,hammer,Marteau,Hammer,
242.1643779000151,243.2817681999877,1.11,,,1,243.28185530001065,243.28189590002876,,,dog,5,5,,,,,,,,,,,,,,,,,,,,,,,,,,None,,,None,2026-07-21_11h54.48.673,6,TSRlearn_localizer-concepts,2026-07-21 11h54.49.731262 +0200,,240.47983830003068,242.1809390000417,242.1809390000417,243.32889740000246,,,,60.042858590282506,239.71831230004318,240.47983830003068,,,239.70759150001686,240.4633773000096,,,dog\dog_06.jpg,,,,,,,,,,,,,,,,,,,,0,1,,None,,240.47983830003068,,,,,None,,0,,,2025.2.4,,,240.4668119000271,242.16428670001915,,,240.4798237666876,240.96305730001768,,,31,0,2026-07-21_11:58:49.440066,31,32,,None,,,None,,31,31,0,31,,,,,,dog,Chien,Hund,
245.7762682000175,246.69003250001697,0.91,,,1,246.69011150003644,246.69015199999558,,,flower,6,6,,,,,,,,,,,,,,,,,,,,,,,,,,None,,,None,2026-07-21_11h54.48.673,4,TSRlearn_localizer-concepts,2026-07-21 11h54.49.731262 +0200,,244.09061210002983,245.7862477999879,245.7862477999879,246.8067427999922,,,,60.042858590282506,243.32889740000246,244.09061210002983,,,243.31923429999733,244.06664209999144,,,flower\flower_04.jpg,,,,,,,,,,,,,,,,,,,,0,1,,None,,244.09061210002983,,,,,None,,0,,,2025.2.4,,,244.069369200035,245.77619230002165,,,244.08309526666224,244.97024890000466,,,32,0,2026-07-21_11:58:53.050651,32,33,,None,,,None,,32,32,0,32,,,,,,flower,Fleur,Blume,
249.2545017999946,250.08749120001448,0.82,,,1,250.08756160002667,250.08759599999757,,,ball,1,1,,,,,,,,,,,,,,,,,,,,,,,,,,None,,,None,2026-07-21_11h54.48.673,11,TSRlearn_localizer-concepts,2026-07-21 11h54.49.731262 +0200,,247.55941580003127,249.2706363000325,249.2706363000325,250.1343928000424,,,,60.042858590282506,246.8067427999922,247.55941580003127,,,246.76570360001642,247.53935159998946,,,ball\ball_11.jpg,,,,,,,,,,,,,,,,,,,,0,1,,None,,247.55941580003127,,,,,None,,0,,,2025.2.4,,,247.54254560003756,249.2544016999891,,,247.55581776670104,248.33851710002637,,,33,0,2026-07-21_11:58:56.528497,33,34,,None,,,None,,33,33,0,33,,,,,,ball,Ballon,Ball,
252.57974070002092,253.5287124000024,0.95,,,1,253.5287983000162,253.52883950003888,,,jacket,10,10,,,,,,,,,,,,,,,,,,,,,,,,,,None,,,None,2026-07-21_11h54.48.673,11,TSRlearn_localizer-concepts,2026-07-21 11h54.49.731262 +0200,,250.89013399998657,252.59300260001328,252.59300260001328,253.57937280001352,,,,60.042858590282506,250.1343928000424,250.89013399998657,,,250.10677539999597,250.87242140003946,,,jacket\jacket_11.jpg,,,,,,,,,,,,,,,,,,,,0,1,,None,,250.89013399998657,,,,,None,,0,,,2025.2.4,,,250.87728389998665,252.57966119999764,,,250.8888503667006,251.43876869999804,,,34,0,2026-07-21_11:58:59.856147,34,35,,None,,,None,,34,34,0,34,,,,,,jacket,Veste,Jacke,
256.0305178000126,256.9937181000132,0.96,,,1,256.99378920003073,256.99382510001305,,,house,9,9,,,,,,,,,,,,,,,,,,,,,,,,,,None,,,None,2026-07-21_11h54.48.673,13,TSRlearn_localizer-concepts,2026-07-21 11h54.49.731262 +0200,,254.33910139999352,256.0498384000384,256.0498384000384,257.01904370001284,,,,60.042858590282506,253.57937280001352,254.33910139999352,,,253.5577330000233,254.31391120003536,,,house\house_13.jpg,,,,,,,,,,,,,,,,,,,,0,1,,None,,254.33910139999352,,,,,None,,0,,,2025.2.4,,,254.3182352000149,256.03043770004297,,,254.33033226669457,254.8592384000076,,,35,0,2026-07-21_11:59:03.301127,35,36,,None,,,None,,35,35,0,35,,,,,,house,Maison,Haus,
259.46320250001736,260.7141392999911,1.24,,,1,260.71422610001173,260.7142738000257,,,bicycle,2,2,,,,,,,,,,,,,,,,,,,,,,,,,,None,,,None,2026-07-21_11h54.48.673,6,TSRlearn_localizer-concepts,2026-07-21 11h54.49.731262 +0200,,257.7774483000394,259.4797096000402,259.4797096000402,260.8144990000292,,,,60.042858590282506,257.01904370001284,257.7774483000394,,,257.0094088999904,257.7607292000321,,,bicycle\bicycle_06.jpg,,,,,,,,,,,,,,,,,,,,0,1,,None,,257.7774483000394,,,,,None,,0,,,2025.2.4,,,257.7629537000321,259.46312910004053,,,257.7772297666563,258.47790230001556,,,36,0,2026-07-21_11:59:06.740798,36,37,,None,,,None,,36,36,0,36,,,,,,bicycle,Vélo,Fahrrad,
263.27559360000305,264.43936580000445,1.15,,,1,264.4394469000399,264.4394876000006,,,bread,3,3,,,,,,,,,,,,,,,,,,,,,,,,,,None,,,None,2026-07-21_11h54.48.673,15,TSRlearn_localizer-concepts,2026-07-21 11h54.49.731262 +0200,,261.57381890004035,263.28808850003406,263.28808850003406,264.48663430003216,,,,60.042858590282506,260.8144990000292,261.57381890004035,,,260.77408569998806,261.5534852000419,,,bread\bread_15.jpg,,,,,,,,,,,,,,,,,,,,0,1,,None,,261.57381890004035,,,,,None,,0,,,2025.2.4,,,261.5569050000049,263.2755189000163,,,261.56991646666233,262.5090901000076,,,37,0,2026-07-21_11:59:10.536253,37,38,,None,,,None,,37,37,0,37,,,,,,bread,Pain,Brot,
266.95307680004044,268.01944750000257,1.06,,,1,268.0195276000304,268.01956660003634,,,house,9,5,,,,,,,,,,,,,,,,,,,,,,,,,,None,,,r,2026-07-21_11h54.48.673,40,TSRlearn_localizer-concepts,2026-07-21 11h54.49.731262 +0200,,265.26168110000435,266.9686770000262,266.9686770000262,268.0450050000218,,,,60.042858590282506,264.48663430003216,265.26168110000435,,,264.460764700023,265.2361987000331,,,house\house_40.jpg,,,,,,,,,,,,,,,,,,,,1,1,,None,,265.26168110000435,,,,,right,,0,,,2025.2.4,,,265.240431800019,266.95299860002706,,,265.25256346667106,265.7339567000163,,,38,0,2026-07-21_11:59:14.208388,38,39,,None,,,None,,38,38,0,38,,,,,,dog,Chien,Hund,
270.50905870000133,271.3236833999981,0.81,,,1,271.32378269999754,271.32382330001565,,,bicycle,2,2,,,,,,,,,,,,,,,,,,,,,,,,,,None,,,None,2026-07-21_11h54.48.673,13,TSRlearn_localizer-concepts,2026-07-21 11h54.49.731262 +0200,,268.80429150001146,270.5246832999983,270.5246832999983,271.37083080003504,,,,60.042858590282506,268.0450050000218,268.80429150001146,,,268.0357959000394,268.78721249999944,,,bicycle\bicycle_13.jpg,,,,,,,,,,,,,,,,,,,,0,1,,None,,268.80429150001146,,,,,None,,0,,,2025.2.4,,,268.78927220002515,270.50898159999633,,,268.8036948666597,269.51088890002575,,,39,0,2026-07-21_11:59:17.766759,39,40,,None,,,None,,39,39,0,39,,,,,,bicycle,Vélo,Fahrrad,
273.8255142000271,275.0265259000007,1.19,,,1,275.0266126000206,275.02665130002424,,,bread,3,3,,,,,,,,,,,,,,,,,,,,,,,,,,None,,,None,2026-07-21_11h54.48.673,21,TSRlearn_localizer-concepts,2026-07-21 11h54.49.731262 +0200,,272.1349356000428,273.841906799993,273.841906799993,275.059524100041,,,,60.042858590282506,271.37083080003504,272.1349356000428,,,271.35925919999136,272.1150258000125,,,bread\bread_21.jpg,,,,,,,,,,,,,,,,,,,,0,1,,None,,272.1349356000428,,,,,None,,0,,,2025.2.4,,,272.1179204999935,273.8254394000396,,,272.13146926666764,273.0670403999975,,,40,0,2026-07-21_11:59:21.092585,40,41,,None,,,None,,40,40,0,40,,,,,,bread,Pain,Brot,
277.4982657000073,278.36894000001485,0.85,,,1,278.36901810002746,278.3690503000398,,,hand,8,8,,,,,,,,,,,,,,,,,,,,,,,,,,None,,,None,2026-07-21_11h54.48.673,14,TSRlearn_localizer-concepts,2026-07-21 11h54.49.731262 +0200,,275.8113755999948,277.5204786999966,277.5204786999966,278.415399599995,,,,60.042858590282506,275.059524100041,275.8113755999948,,,275.04714810004225,275.7935077000293,,,hand\hand_14.jpg,,,,,,,,,,,,,,,,,,,,0,1,,None,,275.8113755999948,,,,,None,,0,,,2025.2.4,,,275.7968566000345,277.4981934000389,,,275.80995266669584,276.2930655000382,,,41,0,2026-07-21_11:59:24.781278,41,42,,None,,,None,,41,41,0,41,,,,,,hand,Main,Hand,
280.8581841000123,281.61746189999394,0.76,,,1,281.61753950000275,281.61757699999725,,,chair,4,4,,,,,,,,,,,,,,,,,,,,,,,,,,None,,,None,2026-07-21_11h54.48.673,23,TSRlearn_localizer-concepts,2026-07-21 11h54.49.731262 +0200,,279.1777143999934,280.87181440001586,280.87181440001586,281.66250199999195,,,,60.042858590282506,278.415399599995,279.1777143999934,,,278.3943070000387,279.1527445000247,,,chair\chair_23.jpg,,,,,,,,,,,,,,,,,,,,0,1,,None,,279.1777143999934,,,,,None,,0,,,2025.2.4,,,279.1566528000403,280.8581029000343,,,279.16915016668304,279.7372914000298,,,42,0,2026-07-21_11:59:28.137153,42,43,,None,,,None,,42,42,0,42,,,,,,chair,Chaise,Stuhl,
284.11681040003896,285.3513840000378,1.22,,,1,285.3514688000432,285.3515286000329,,,bicycle,2,2,,,,,,,,,,,,,,,,,,,,,,,,,,None,,,None,2026-07-21_11h54.48.673,31,TSRlearn_localizer-concepts,2026-07-21 11h54.49.731262 +0200,,282.4140587000293,284.1334423000226,284.1334423000226,285.3761177000124,,,,60.042858590282506,281.66250199999195,282.4140587000293,,,281.63929140003165,282.39950800000224,,,bicycle\bicycle_31.jpg,,,,,,,,,,,,,,,,,,,,0,1,,None,,282.4140587000293,,,,,None,,0,,,2025.2.4,,,282.4016377000371,284.11673200002406,,,282.41599756665914,283.1160362000228,,,43,0,2026-07-21_11:59:31.384256,43,44,,None,,,None,,43,43,0,43,,,,,,bicycle,Vélo,Fahrrad,
287.8406574000255,288.89328379998915,1.05,,,1,288.89336510002613,288.89340540004196,,,hammer,7,7,,,,,,,,,,,,,,,,,,,,,,,,,,None,,,None,2026-07-21_11h54.48.673,31,TSRlearn_localizer-concepts,2026-07-21 11h54.49.731262 +0200,,286.1538879,287.85825920000207,287.85825920000207,288.97031539998716,,,,60.042858590282506,285.3761177000124,286.1538879,,,285.3668074000161,286.12350550002884,,,hammer\hammer_31.jpg,,,,,,,,,,,,,,,,,,,,0,1,,None,,286.1538879,,,,,None,,0,,,2025.2.4,,,286.1271032000077,287.84058700001333,,,286.1398662666945,286.68014609999955,,,44,0,2026-07-21_11:59:35.097872,44,45,,None,,,None,,44,44,0,44,,,,,,hammer,Marteau,Hammer,
291.4401610000059,292.57453630003147,1.12,,,1,292.574609400006,292.5746475000051,,,chair,4,4,,,,,,,,,,,,,,,,,,,,,,,,,,None,,,None,2026-07-21_11h54.48.673,46,TSRlearn_localizer-concepts,2026-07-21 11h54.49.731262 +0200,,289.73604129999876,291.45704790001037,291.45704790001037,292.61713120003697,,,,60.042858590282506,288.97031539998716,289.73604129999876,,,288.94301099999575,289.7083883000305,,,chair\chair_46.jpg,,,,,,,,,,,,,,,,,,,,0,1,,None,,289.73604129999876,,,,,None,,0,,,2025.2.4,,,289.7125010000309,291.4400929000112,,,289.72482706670803,290.29336010001134,,,45,0,2026-07-21_11:59:38.692069,45,46,,None,,,None,,45,45,0,45,,,,,,chair,Chaise,Stuhl,
295.0771201000316,296.00089150003623,0.92,,,1,296.0009964000201,296.0010504000238,,,ball,1,2,,,,,,,,,,,,,,,,,,,,,,,,,,None,,,r,2026-07-21_11h54.48.673,13,TSRlearn_localizer-concepts,2026-07-21 11h54.49.731262 +0200,,293.37441829999443,295.09672339999815,295.09672339999815,296.0633998000412,,,,60.042858590282506,292.61713120003697,293.37441829999443,,,292.60359750001226,293.35838290001266,,,ball\ball_13.jpg,,,,,,,,,,,,,,,,,,,,1,1,,None,,293.37441829999443,,,,,left,,0,,,2025.2.4,,,293.360656200035,295.0770357000292,,,293.3748312667051,294.0748167000129,,,46,0,2026-07-21_11:59:42.338885,46,47,,None,,,None,,46,46,0,46,,,,,,bicycle,Vélo,Fahrrad,
298.5136095000198,299.31318260001717,0.79,,,1,299.313301599992,299.31335860001855,,,bread,3,3,,,,,,,,,,,,,,,,,,,,,,,,,,None,,,None,2026-07-21_11h54.48.673,37,TSRlearn_localizer-concepts,2026-07-21 11h54.49.731262 +0200,,296.8202864000341,298.5293419000227,298.5293419000227,299.37163460004376,,,,60.042858590282506,296.0633998000412,296.8202864000341,,,296.04153220000444,296.7968144000042,,,bread\bread_37.jpg,,,,,,,,,,,,,,,,,,,,0,1,,None,,296.8202864000341,,,,,None,,0,,,2025.2.4,,,296.7996692000306,298.51353510003537,,,296.813298666679,297.7407384000253,,,47,0,2026-07-21_11:59:45.785154,47,48,,None,,,None,,47,47,0,47,,,,,,bread,Pain,Brot,
301.83170570002403,303.03564150002785,1.2,,,1,303.0357351000421,303.0357919000089,,,dog,5,5,,,,,,,,,,,,,,,,,,,,,,,,,,None,,,None,2026-07-21_11h54.48.673,44,TSRlearn_localizer-concepts,2026-07-21 11h54.49.731262 +0200,,300.12977910001064,301.84807659999933,301.84807659999933,303.0875160000287,,,,60.042858590282506,299.37163460004376,300.12977910001064,,,299.3565710000112,300.11357039998984,,,dog\dog_44.jpg,,,,,,,,,,,,,,,,,,,,0,1,,None,,300.12977910001064,,,,,None,,0,,,2025.2.4,,,300.1172302000341,301.8316377000301,,,300.13011766667864,300.6135359000182,,,48,0,2026-07-21_11:59:49.093388,48,49,,None,,,None,,48,48,0,48,,,,,,dog,Chien,Hund,
305.55866169999354,306.57435140002053,1.01,,,1,306.57446670002537,426.654571400024,306.5907453999971,321.5979584000306,jacket,10,10,,,,,,,,,,,,,,,,,,,,,,,,,0.0641882999916561,r,105.00704680004856,321.58132530003786,None,2026-07-21_11h54.48.673,44,TSRlearn_localizer-concepts,2026-07-21 11h54.49.731262 +0200,,303.8513610000373,305.5754306000308,305.5754306000308,306.5907453999971,,,,60.042858590282506,303.0875160000287,303.8513610000373,,,303.07403359998716,303.8237248000223,,,jacket\jacket_44.jpg,321.58132530003786,,,,,,,,,,,,,,,,,,,0,1,,None,,303.8513610000373,,,,,None,,0,306.5907453999971,321.5979584000306,2025.2.4,,,303.82855380000547,305.55858280003304,,,303.8401223666772,304.39123940002173,,,49,0,2026-07-21_11:59:52.809270,49,50,0.0641882999916561,r,105.00704680004856,,None,,49,49,0,49,,,,,,jacket,Veste,Jacke,
429.15759730001446,430.21620610001264,1.05,,,2,430.2208909000037,430.22094050003216,,,flower,6,6,,,,,,,,,,,,,,,,,,,,,,,,,,None,,,None,2026-07-21_11h54.48.673,27,TSRlearn_localizer-concepts,2026-07-21 11h54.49.731262 +0200,,427.47212990000844,429.1764694000012,429.1764694000012,430.2661369999987,,,,60.042858590282506,426.71454690000974,427.47212990000844,,,426.69847679999657,427.4557463999954,,,flower\flower_27.jpg,,,,,,,,,,,,,,,,,,,,0,1,,None,,427.47212990000844,,,,,None,,0,,,2025.2.4,,,427.4587950000423,429.15751350001665,,,427.47220276669054,428.3578470000066,,,50,0,2026-07-21_12:01:56.436301,50,1,,None,,,None,,50,50,0,50,,,,,,flower,Fleur,Blume,
432.7193723000237,433.92762840003707,1.2,,,2,433.9276958000264,433.92772700003115,,,chair,4,4,,,,,,,,,,,,,,,,,,,,,,,,,,None,,,None,2026-07-21_11h54.48.673,21,TSRlearn_localizer-concepts,2026-07-21 11h54.49.731262 +0200,,431.0245055000414,432.7370756000164,432.7370756000164,434.001060300041,,,,60.042858590282506,430.2661369999987,431.0245055000414,,,430.24341140000615,430.999510499998,,,chair\chair_21.jpg,,,,,,,,,,,,,,,,,,,,0,1,,None,,431.0245055000414,,,,,None,,0,,,2025.2.4,,,431.00318609998794,432.7192023000098,,,431.0159335666724,431.58362900000066,,,51,0,2026-07-21_12:01:59.987891,51,2,,None,,,None,,51,51,0,51,,,,,,chair,Chaise,Stuhl,
436.44687789998716,437.3310377000016,0.88,,,2,437.33110750000924,437.33114110003226,,,hand,8,8,,,,,,,,,,,,,,,,,,,,,,,,,,None,,,None,2026-07-21_11h54.48.673,5,TSRlearn_localizer-concepts,2026-07-21 11h54.49.731262 +0200,,434.7632812000229,436.4627986000269,436.4627986000269,437.3873290999909,,,,60.042858590282506,434.001060300041,434.7632812000229,,,433.9693840999971,434.74538370000664,,,hand\hand_05.jpg,,,,,,,,,,,,,,,,,,,,0,1,,None,,434.7632812000229,,,,,None,,0,,,2025.2.4,,,434.74967620003736,436.4468071000301,,,434.7618400667018,435.2462249000091,,,52,0,2026-07-21_12:02:03.722814,52,3,,None,,,None,,52,52,0,52,,,,,,hand,Main,Hand,
439.8573178999941,440.8351223000209,0.98,,,2,440.83519900002284,440.8352343000006,,,dog,5,5,,,,,,,,,,,,,,,,,,,,,,,,,,None,,,None,2026-07-21_11h54.48.673,6,TSRlearn_localizer-concepts,2026-07-21 11h54.49.731262 +0200,,438.14955349999946,439.87068380002165,439.87068380002165,440.88021289999597,,,,60.042858590282506,437.3873290999909,438.14955349999946,,,437.3619730999926,438.1311409000191,,,dog\dog_06.jpg,,,,,,,,,,,,,,,,,,,,0,1,,None,,438.14955349999946,,,,,None,,0,,,2025.2.4,,,438.1345691999886,439.85724059998756,,,438.1476169666896,438.64933099999325,,,53,0,2026-07-21_12:02:07.109083,53,4,,None,,,None,,53,53,0,53,,,,,,dog,Chien,Hund,
443.33536349999486,444.18668949999847,0.84,,,2,444.18676150002284,444.18681069999,,,hammer,7,7,,,,,,,,,,,,,,,,,,,,,,,,,,None,,,None,2026-07-21_11h54.48.673,31,TSRlearn_localizer-concepts,2026-07-21 11h54.49.731262 +0200,,441.63870100001805,443.35178570001153,443.35178570001153,444.2694683999871,,,,60.042858590282506,440.88021289999597,441.63870100001805,,,440.85241099999985,441.619528500014,,,hammer\hammer_31.jpg,,,,,,,,,,,,,,,,,,,,0,1,,None,,441.63870100001805,,,,,None,,0,,,2025.2.4,,,441.6228206999949,443.33528200001456,,,441.63599906670083,442.15410660003545,,,54,0,2026-07-21_12:02:10.601967,54,5,,None,,,None,,54,54,0,54,,,,,,hammer,Marteau,Hammer,
446.7078359000152,447.64648300001863,0.93,,,2,447.6465599000221,447.64659730001586,,,ball,1,1,,,,,,,,,,,,,,,,,,,,,,,,,,None,,,None,2026-07-21_11h54.48.673,11,TSRlearn_localizer-concepts,2026-07-21 11h54.49.731262 +0200,,445.01994790002936,446.7213808000088,446.7213808000088,447.70072930003516,,,,60.042858590282506,444.2694683999871,445.01994790002936,,,444.2431865000399,445.0034394999966,,,ball\ball_11.jpg,,,,,,,,,,,,,,,,,,,,0,1,,None,,445.01994790002936,,,,,None,,0,,,2025.2.4,,,445.00661939999554,446.70776140003,,,445.01994606666653,445.7865870000096,,,55,0,2026-07-21_12:02:13.991222,55,6,,None,,,None,,55,55,0,55,,,,,,ball,Ballon,Ball,
450.17963460000465,451.3307117000222,1.15,,,2,451.3307943000109,451.33083120000083,,,hammer,7,7,,,,,,,,,,,,,,,,,,,,,,,,,,None,,,None,2026-07-21_11h54.48.673,34,TSRlearn_localizer-concepts,2026-07-21 11h54.49.731262 +0200,,448.471674200031,450.19681640004274,450.19681640004274,451.40236770000774,,,,60.042858590282506,447.70072930003516,448.471674200031,,,447.6755300000077,448.44763990002684,,,hammer\hammer_34.jpg,,,,,,,,,,,,,,,,,,,,0,1,,None,,448.471674200031,,,,,None,,0,,,2025.2.4,,,448.45105560001684,450.17956320004305,,,448.46405906667155,448.9856101000332,,,56,0,2026-07-21_12:02:17.422483,56,7,,None,,,None,,56,56,0,56,,,,,,hammer,Marteau,Hammer,
452.66013750003185,454.64490830001887,0.98,,,2,454.6449794000364,454.6450138000073,,,bicycle,2,8,,,,,,,,,,,,,,,,,,,,,,,,,,None,,,r,2026-07-21_11h54.48.673,45,TSRlearn_localizer-concepts,2026-07-21 11h54.49.731262 +0200,,452.15940709999995,,452.67649159999564,454.68957149999915,,,,60.042858590282506,451.40236770000774,452.15940709999995,,,451.37219630001346,452.1435522999964,,,bicycle\bicycle_45.jpg,,,,,,,,,,,,,,,,,,,,1,1,0.06378460000269115,r,0.22170370002277195,452.15940709999995,,,,,left,,0,,,2025.2.4,,,452.14705040003173,452.66003430000274,,,452.159927166653,452.64372160000494,,,57,0,2026-07-21_12:02:21.124121,57,8,,None,,0.06378460000269115,r,0.22170370002277195,57,57,0,57,,,,,,hand,Main,Hand,
457.1490933999885,458.0048741000355,0.85,,,2,458.00496330001624,458.00500669999747,,,bread,3,3,,,,,,,,,,,,,,,,,,,,,,,,,,None,,,None,2026-07-21_11h54.48.673,12,TSRlearn_localizer-concepts,2026-07-21 11h54.49.731262 +0200,,455.4530820000218,457.1660491999937,457.1660491999937,458.0507937000366,,,,60.042858590282506,454.68957149999915,455.4530820000218,,,454.67604990000837,455.4337091000052,,,bread\bread_12.jpg,,,,,,,,,,,,,,,,,,,,0,1,,None,,455.4530820000218,,,,,None,,0,,,2025.2.4,,,455.4367823000066,457.1490219000261,,,455.4499927666659,456.3805989000248,,,58,0,2026-07-21_12:02:24.411325,58,9,,None,,,None,,58,58,0,58,,,,,,bread,Pain,Brot,
460.4998227999895,461.38369310001144,0.88,,,2,461.38376480003353,461.3838009000174,,,hammer,7,7,,,,,,,,,,,,,,,,,,,,,,,,,,None,,,None,2026-07-21_11h54.48.673,27,TSRlearn_localizer-concepts,2026-07-21 11h54.49.731262 +0200,,458.81815609999467,460.5166980000213,460.5166980000213,461.4082882000366,,,,60.042858590282506,458.0507937000366,458.81815609999467,,,458.0260733999894,458.79058450000593,,,hammer\hammer_27.jpg,,,,,,,,,,,,,,,,,,,,0,1,,None,,458.81815609999467,,,,,None,,0,,,2025.2.4,,,458.7946383000235,460.4997413000092,,,458.80700006668144,459.3384963000426,,,59,0,2026-07-21_12:02:27.772547,59,10,,None,,,None,,59,59,0,59,,,,,,hammer,Marteau,Hammer,
463.8699888000265,465.09284870000556,1.22,,,2,465.09292790002655,465.0929669000325,,,bicycle,2,2,,,,,,,,,,,,,,,,,,,,,,,,,,None,,,None,2026-07-21_11h54.48.673,46,TSRlearn_localizer-concepts,2026-07-21 11h54.49.731262 +0200,,462.1680434999871,463.8866175999865,463.8866175999865,465.1613666000194,,,,60.042858590282506,461.4082882000366,462.1680434999871,,,461.3980970000266,462.15156800003024,,,bicycle\bicycle_46.jpg,,,,,,,,,,,,,,,,,,,,0,1,,None,,462.1680434999871,,,,,None,,0,,,2025.2.4,,,462.1536871000426,463.86992010002723,,,462.1679934666647,462.8681376000168,,,60,0,2026-07-21_12:02:31.130042,60,11,,None,,,None,,60,60,0,60,,,,,,bicycle,Vélo,Fahrrad,
467.6296954000136,468.4243351999903,0.8,,,2,468.42440830002306,468.42444319999777,,,jacket,10,4,,,,,,,,,,,,,,,,,,,,,,,,,,None,,,r,2026-07-21_11h54.48.673,44,TSRlearn_localizer-concepts,2026-07-21 11h54.49.731262 +0200,,465.9206950000371,467.64051830000244,467.64051830000244,468.45143459999235,,,,60.042858590282506,465.1613666000194,465.9206950000371,,,465.1342145000235,465.8960885000415,,,jacket\jacket_44.jpg,,,,,,,,,,,,,,,,,,,,1,1,,None,,465.9206950000371,,,,,left,,0,,,2025.2.4,,,465.89988440001616,467.62961940001696,,,465.91251846671025,466.4726795000024,,,61,0,2026-07-21_12:02:34.883121,61,12,,None,,,None,,61,61,0,61,,,,,,chair,Chaise,Stuhl,
470.9089728000108,471.792484900041,0.87,,,2,471.79256989998976,471.79261290002614,,,house,9,9,,,,,,,,,,,,,,,,,,,,,,,,,,None,,,None,2026-07-21_11h54.48.673,7,TSRlearn_localizer-concepts,2026-07-21 11h54.49.731262 +0200,,469.20728550001513,470.9251690999954,470.9251690999954,471.8489847999881,,,,60.042858590282506,468.45143459999235,469.20728550001513,,,468.4390782000264,469.1910293000401,,,house\house_07.jpg,,,,,,,,,,,,,,,,,,,,0,1,,None,,469.20728550001513,,,,,None,,0,,,2025.2.4,,,469.19536980002886,470.9088761000312,,,469.2073776666696,469.75772440002766,,,62,0,2026-07-21_12:02:38.173188,62,13,,None,,,None,,62,62,0,62,,,,,,house,Maison,Haus,
473.2619731000159,475.1312262000283,0.86,,,2,475.131308800017,475.1313519999967,,,ball,1,1,,,,,,,,,,,,,,,,,,,,,,,,,,None,,,None,2026-07-21_11h54.48.673,45,TSRlearn_localizer-concepts,2026-07-21 11h54.49.731262 +0200,,472.6123142000288,,473.2800216000178,475.19159679999575,,,,60.042858590282506,471.8489847999881,472.6123142000288,,,471.8334423000342,472.5946071000071,,,ball\ball_45.jpg,,,,,,,,,,,,,,,,,,,,0,1,0.08009399997536093,r,0.3292463000398129,472.6123142000288,,,,,None,,0,,,2025.2.4,,,472.59730660001514,473.2618785999948,,,472.6110491667098,,,,63,0,2026-07-21_12:02:41.570739,63,14,,None,,0.08009399997536093,r,0.3292463000398129,63,63,0,63,,,,,,ball,Ballon,Ball,
477.6477082000347,478.8321805000305,1.18,,,2,478.8322530000005,478.83228800003417,,,bread,3,3,,,,,,,,,,,,,,,,,,,,,,,,,,None,,,None,2026-07-21_11h54.48.673,37,TSRlearn_localizer-concepts,2026-07-21 11h54.49.731262 +0200,,475.94949979998637,477.6643781000166,477.6643781000166,478.85597440000856,,,,60.042858590282506,475.19159679999575,475.94949979998637,,,475.16529860004084,475.9306774000288,,,bread\bread_37.jpg,,,,,,,,,,,,,,,,,,,,0,1,,None,,475.94949979998637,,,,,None,,0,,,2025.2.4,,,475.9334696000442,477.64764069998637,,,475.9471524666917,476.8648732000147,,,64,0,2026-07-21_12:02:44.913351,64,15,,None,,,None,,64,64,0,64,,,,,,bread,Pain,Brot,
480.30002510000486,482.3254395000404,1.01,,,2,482.32552700000815,482.32556920003844,,,dog,5,5,,,,,,,,,,,,,,,,,,,,,,,,,,None,,,None,2026-07-21_11h54.48.673,30,TSRlearn_localizer-concepts,2026-07-21 11h54.49.731262 +0200,,479.61630100000184,,480.31621240003733,482.3676145999925,,,,60.042858590282506,478.85597440000856,479.61630100000184,,,478.84639770002104,479.5992554000113,,,dog\dog_30.jpg,,,,,,,,,,,,,,,,,,,,0,1,0.09629010001663119,r,0.3817032999941148,479.61630100000184,,,,,None,,0,,,2025.2.4,,,479.6030098000192,480.2998977000243,,,479.615745466672,480.0996418000432,,,65,0,2026-07-21_12:02:48.577728,65,16,,None,,0.09629010001663119,r,0.3817032999941148,65,65,0,65,,,,,,dog,Chien,Hund,
484.82654480001656,485.79394120001234,0.95,,,2,485.79400950000854,485.79404160002014,,,house,9,9,,,,,,,,,,,,,,,,,,,,,,,,,,None,,,None,2026-07-21_11h54.48.673,13,TSRlearn_localizer-concepts,2026-07-21 11h54.49.731262 +0200,,483.14010670001153,484.8426163000404,484.8426163000404,485.82532210001955,,,,60.042858590282506,482.3676145999925,483.14010670001153,,,482.3414102999959,483.11053790000733,,,house\house_13.jpg,,,,,,,,,,,,,,,,,,,,0,1,,None,,483.14010670001153,,,,,None,,0,,,2025.2.4,,,483.11547070002416,484.82646960002603,,,483.1269087666917,483.67688919999637,,,66,0,2026-07-21_12:02:52.089368,66,17,,None,,,None,,66,66,0,66,,,,,,house,Maison,Haus,
488.27356599998893,489.42411419999553,1.14,,,2,489.42420260002837,489.4242411000305,,,jacket,10,10,,,,,,,,,,,,,,,,,,,,,,,,,,None,,,None,2026-07-21_11h54.48.673,27,TSRlearn_localizer-concepts,2026-07-21 11h54.49.731262 +0200,,486.5885123999906,488.2897261999897,488.2897261999897,489.46979050000664,,,,60.042858590282506,485.82532210001955,486.5885123999906,,,485.80866070004413,486.57169420004357,,,jacket\jacket_27.jpg,,,,,,,,,,,,,,,,,,,,0,1,,None,,486.5885123999906,,,,,None,,0,,,2025.2.4,,,486.5763876000419,488.2735081000137,,,486.5881931666556,487.1230203000014,,,67,0,2026-07-21_12:02:55.547076,67,18,,None,,,None,,67,67,0,67,,,,,,jacket,Veste,Jacke,
491.91476950002834,493.0992688999977,1.18,,,2,493.0993499000324,493.09938979998697,,,hand,8,8,,,,,,,,,,,,,,,,,,,,,,,,,,None,,,None,2026-07-21_11h54.48.673,36,TSRlearn_localizer-concepts,2026-07-21 11h54.49.731262 +0200,,490.2345509000006,491.93263060000027,491.93263060000027,493.1365464000264,,,,60.042858590282506,489.46979050000664,490.2345509000006,,,489.45914779999293,490.20989910000935,,,hand\hand_36.jpg,,,,,,,,,,,,,,,,,,,,0,1,,None,,490.2345509000006,,,,,None,,0,,,2025.2.4,,,490.213293400011,491.91470299998764,,,490.22634156665686,490.71248510002624,,,68,0,2026-07-21_12:02:59.191544,68,19,,None,,,None,,68,68,0,68,,,,,,hand,Main,Hand,
495.59629080002196,496.78080280002905,1.18,,,2,496.7808764000074,496.7809152000118,,,dog,5,5,,,,,,,,,,,,,,,,,,,,,,,,,,None,,,None,2026-07-21_11h54.48.673,39,TSRlearn_localizer-concepts,2026-07-21 11h54.49.731262 +0200,,493.90294080000604,495.6132787000388,495.6132787000388,496.82925290003186,,,,60.042858590282506,493.1365464000264,493.90294080000604,,,493.1152276000357,493.88208609999856,,,dog\dog_39.jpg,,,,,,,,,,,,,,,,,,,,0,1,,None,,493.90294080000604,,,,,None,,0,,,2025.2.4,,,493.8854861999862,495.5962239000364,,,493.89856066665766,494.37870020000264,,,69,0,2026-07-21_12:03:02.858300,69,20,,None,,,None,,69,69,0,69,,,,,,dog,Chien,Hund,
499.2759833000018,500.1225931000081,0.84,,,2,500.12267000001157,500.1227072000038,,,chair,4,4,,,,,,,,,,,,,,,,,,,,,,,,,,None,,,None,2026-07-21_11h54.48.673,46,TSRlearn_localizer-concepts,2026-07-21 11h54.49.731262 +0200,,497.5808917999966,499.299930600042,499.299930600042,500.17312110000057,,,,60.042858590282506,496.82925290003186,497.5808917999966,,,496.81488459999673,497.5645710999961,,,chair\chair_46.jpg,,,,,,,,,,,,,,,,,,,,0,1,,None,,497.5808917999966,,,,,None,,0,,,2025.2.4,,,497.56861940003,499.2759137999965,,,497.581068966658,498.1481153999921,,,70,0,2026-07-21_12:03:06.551007,70,21,,None,,,None,,70,70,0,70,,,,,,chair,Chaise,Stuhl,
502.6245707999915,503.72002880001673,1.09,,,2,503.72010999999475,503.72014360001776,,,flower,6,6,,,,,,,,,,,,,,,,,,,,,,,,,,None,,,None,2026-07-21_11h54.48.673,32,TSRlearn_localizer-concepts,2026-07-21 11h54.49.731262 +0200,,500.92739610001445,502.63935810001567,502.63935810001567,503.76947699999437,,,,60.042858590282506,500.17312110000057,500.92739610001445,,,500.1490480999928,500.9091183000128,,,flower\flower_32.jpg,,,,,,,,,,,,,,,,,,,,0,1,,None,,500.92739610001445,,,,,None,,0,,,2025.2.4,,,500.91179330000887,502.62450209999224,,,500.92555616668346,501.8308052000357,,,71,0,2026-07-21_12:03:09.894875,71,22,,None,,,None,,71,71,0,71,,,,,,flower,Fleur,Blume,
506.2238476999919,507.123008900031,0.89,,,2,507.1230976000079,507.12314270000206,,,bread,3,3,,,,,,,,,,,,,,,,,,,,,,,,,,None,,,None,2026-07-21_11h54.48.673,48,TSRlearn_localizer-concepts,2026-07-21 11h54.49.731262 +0200,,504.5211299000075,506.23829230002593,506.23829230002593,507.1518718000152,,,,60.042858590282506,503.76947699999437,504.5211299000075,,,503.75473460002104,504.5061541000032,,,bread\bread_48.jpg,,,,,,,,,,,,,,,,,,,,0,1,,None,,504.5211299000075,,,,,None,,0,,,2025.2.4,,,504.50937949999934,506.2237527000252,,,504.52253946668156,505.43774490000214,,,72,0,2026-07-21_12:03:13.491231,72,23,,None,,,None,,72,72,0,72,,,,,,bread,Pain,Brot,
509.6103711000178,510.68056649999926,1.07,,,2,510.680647900037,510.6806887999992,,,chair,4,4,,,,,,,,,,,,,,,,,,,,,,,,,,None,,,None,2026-07-21_11h54.48.673,27,TSRlearn_localizer-concepts,2026-07-21 11h54.49.731262 +0200,,507.92221330001485,509.62600530002965,509.62600530002965,510.71796540002106,,,,60.042858590282506,507.1518718000152,507.92221330001485,,,507.1386647000327,507.8975739000016,,,chair\chair_27.jpg,,,,,,,,,,,,,,,,,,,,0,1,,None,,507.92221330001485,,,,,None,,0,,,2025.2.4,,,507.9013590000104,509.6103092000121,,,507.91398696665806,508.47558359999675,,,73,0,2026-07-21_12:03:16.873626,73,24,,None,,,None,,73,73,0,73,,,,,,chair,Chaise,Stuhl,
513.1618870000239,514.4133384000161,1.24,,,2,514.4134547000285,514.4135178000433,,,bicycle,2,2,,,,,,,,,,,,,,,,,,,,,,,,,,None,,,None,2026-07-21_11h54.48.673,6,TSRlearn_localizer-concepts,2026-07-21 11h54.49.731262 +0200,,511.4765723000164,513.1781015000306,513.1781015000306,514.4496088000014,,,,60.042858590282506,510.71796540002106,511.4765723000164,,,510.69639330002246,511.46015860000625,,,bicycle\bicycle_06.jpg,,,,,,,,,,,,,,,,,,,,0,1,,None,,511.4765723000164,,,,,None,,0,,,2025.2.4,,,511.46222480002325,513.1618082000059,,,511.4766379667019,512.1768141000066,,,74,0,2026-07-21_12:03:20.439719,74,25,,None,,,None,,74,74,0,74,,,,,,bicycle,Vélo,Fahrrad,
516.9166481000138,518.1175005999976,1.19,,,2,518.1176430000341,518.1177204000414,,,hammer,7,7,,,,,,,,,,,,,,,,,,,,,,,,,,None,,,None,2026-07-21_11h54.48.673,14,TSRlearn_localizer-concepts,2026-07-21 11h54.49.731262 +0200,,515.2231473000138,516.9359608000377,516.9359608000377,518.2184271999868,,,,60.042858590282506,514.4496088000014,515.2231473000138,,,514.4396769999876,515.1976758000092,,,hammer\hammer_14.jpg,,,,,,,,,,,,,,,,,,,,0,1,,None,,515.2231473000138,,,,,None,,0,,,2025.2.4,,,515.2015037999954,516.9165721000172,,,515.2140827666774,515.7298635999905,,,75,0,2026-07-21_12:03:24.171363,75,26,,None,,,None,,75,75,0,75,,,,,,hammer,Marteau,Hammer,
520.667880700028,521.4516584000085,0.78,,,2,521.4517406999948,521.4517739000148,,,bread,3,3,,,,,,,,,,,,,,,,,,,,,,,,,,None,,,None,2026-07-21_11h54.48.673,15,TSRlearn_localizer-concepts,2026-07-21 11h54.49.731262 +0200,,518.9854310000082,520.6841141000041,520.6841141000041,521.5098750999896,,,,60.042858590282506,518.2184271999868,518.9854310000082,,,518.1789812000352,518.9580912000383,,,bread\bread_15.jpg,,,,,,,,,,,,,,,,,,,,0,1,,None,,518.9854310000082,,,,,None,,0,,,2025.2.4,,,518.9616867000004,520.6678116000257,,,518.9745345666927,519.9005563000101,,,76,0,2026-07-21_12:03:27.940181,76,27,,None,,,None,,76,76,0,76,,,,,,bread,Pain,Brot,
523.9714807000128,525.1767409000313,1.2,,,2,525.1768298000097,525.1768728999887,,,flower,6,6,,,,,,,,,,,,,,,,,,,,,,,,,,None,,,None,2026-07-21_11h54.48.673,47,TSRlearn_localizer-concepts,2026-07-21 11h54.49.731262 +0200,,522.2689291000133,523.9876379999914,523.9876379999914,525.2185156000196,,,,60.042858590282506,521.5098750999896,522.2689291000133,,,521.4922425000113,522.2525331000215,,,flower\flower_47.jpg,,,,,,,,,,,,,,,,,,,,0,1,,None,,522.2689291000133,,,,,None,,0,,,2025.2.4,,,522.2555496999994,523.9713997000363,,,522.2689735666538,523.1541473999969,,,77,0,2026-07-21_12:03:31.231629,77,28,,None,,,None,,77,77,0,77,,,,,,flower,Fleur,Blume,
527.6757393000298,528.5081110000028,0.81,,,2,528.5081910000299,528.5082302000374,,,jacket,10,10,,,,,,,,,,,,,,,,,,,,,,,,,,None,,,None,2026-07-21_11h54.48.673,11,TSRlearn_localizer-concepts,2026-07-21 11h54.49.731262 +0200,,525.9885940999957,527.6992210000171,527.6992210000171,528.6194584000041,,,,60.042858590282506,525.2185156000196,525.9885940999957,,,525.1938692000112,525.962171000021,,,jacket\jacket_11.jpg,,,,,,,,,,,,,,,,,,,,0,1,,None,,525.9885940999957,,,,,None,,0,,,2025.2.4,,,525.9665569000063,527.6756602000096,,,525.9786206666652,526.5240464000381,,,78,0,2026-07-21_12:03:34.940269,78,29,,None,,,None,,78,78,0,78,,,,,,jacket,Veste,Jacke,
531.0767661000136,532.2963568000123,1.21,,,2,532.296431499999,532.2964658000274,,,ball,1,5,,,,,,,,,,,,,,,,,,,,,,,,,,None,,,r,2026-07-21_11h54.48.673,7,TSRlearn_localizer-concepts,2026-07-21 11h54.49.731262 +0200,,529.3750303999986,531.0928781999974,531.0928781999974,532.3252569999895,,,,60.042858590282506,528.6194584000041,529.3750303999986,,,528.570747299993,529.3590873000212,,,ball\ball_07.jpg,,,,,,,,,,,,,,,,,,,,1,1,,None,,529.3750303999986,,,,,left,,0,,,2025.2.4,,,529.3625658000237,531.0766841000295,,,529.3755684666723,529.8589737000293,,,79,0,2026-07-21_12:03:38.341212,79,30,,None,,,None,,79,79,0,79,,,,,,dog,Chien,Hund,
534.7869665999897,535.6777878000285,0.88,,,2,535.6779790000292,535.6780565000372,,,chair,4,4,,,,,,,,,,,,,,,,,,,,,,,,,,None,,,None,2026-07-21_11h54.48.673,23,TSRlearn_localizer-concepts,2026-07-21 11h54.49.731262 +0200,,533.0943393000052,534.802602300013,534.802602300013,535.7862288000179,,,,60.042858590282506,532.3252569999895,533.0943393000052,,,532.3134798000101,533.0684558000066,,,chair\chair_23.jpg,,,,,,,,,,,,,,,,,,,,0,1,,None,,533.0943393000052,,,,,None,,0,,,2025.2.4,,,533.0721837999881,534.7868970000418,,,533.0848409666835,533.6498312000185,,,80,0,2026-07-21_12:03:42.047011,80,31,,None,,,None,,80,80,0,80,,,,,,chair,Chaise,Stuhl,
538.2721590000438,539.4006907999865,1.13,,,2,539.4008053000434,539.4008620000095,,,flower,6,6,,,,,,,,,,,,,,,,,,,,,,,,,,None,,,None,2026-07-21_11h54.48.673,40,TSRlearn_localizer-concepts,2026-07-21 11h54.49.731262 +0200,,536.5887499999953,538.2854635000112,538.2854635000112,539.4372949000099,,,,60.042858590282506,535.7862288000179,536.5887499999953,,,535.7532868999988,536.5421308000223,,,flower\flower_40.jpg,,,,,,,,,,,,,,,,,,,,0,1,,None,,536.5887499999953,,,,,None,,0,,,2025.2.4,,,536.5481981000048,538.2720696000033,,,536.5577983667065,537.46821120003,,,81,0,2026-07-21_12:03:45.507983,81,32,,None,,,None,,81,81,0,81,,,,,,flower,Fleur,Blume,
,,1.22,,,2,,,,,hand,8,9,,,,,,,,,,,,,,,,,,,,,,,,,,,,,r,,18,,,,540.2005648000049,,,,,,,,539.4372949000099,540.2005648000049,,,539.4262413000106,540.1840709000244,,,hand\hand_18.jpg,,,,,,,,,,,,,,,,,,,,1,1,,,,540.2005648000049,,,,,right,,,,,,,,540.1887088000076,,,,540.2005952666552,540.7350137000321,,,82,0,2026-07-21_12:03:49.159049,82,33,,,,,,,82,82,0,82,,,,,,house,Maison,Haus,
