ITI.started,ITI.stopped,ITI_length,ITI_prc.started,ITI_prc.stopped,block,break_3.started,break_3.stopped,concept,concept_num,concept_num_word,continue_button.duration,continue_button.keys,continue_button.rt,continue_button.started,continue_button_3.duration,continue_button_3.keys,continue_button_3.rt,continue_button_3.started,continue_button_4.duration,continue_button_4.keys,continue_button_4.rt,continue_button_4.started,continue_button_6.duration,continue_button_6.keys,continue_button_6.rt,continue_button_6.started,continue_button_8.duration,continue_button_8.keys,continue_button_8.rt,continue_button_8.started,continue_button_9.duration,continue_button_9.keys,continue_button_9.rt,continue_button_9.started,continue_button_break.keys,correct_response,date,exemplar_num,expName,expStart,expVersion,fix_cross.started,fix_cross.stopped,fix_cross_2.started,fix_cross_2.stopped,fix_cross_2_prc.started,fix_cross_2_prc.stopped,fix_cross_prc.started,frameRate,image.started,image.stopped,image_prc.started,image_prc.stopped,image_pres.started,image_pres.stopped,image_pres_prc.started,image_pres_prc.stopped,image_shown,instruction_part1.started,instruction_part2.started,instruction_part3.started,instruction_part4.started,instruction_startexp.started,instruction_startexp_2.started,instructions.started,instructions.stopped,instructions_02.started,instructions_02.stopped,instructions_03.started,instructions_03.stopped,instructions_04.started,instructions_04.stopped,instructions_startexp.started,instructions_startexp.stopped,instructions_startexp_02.started,instructions_startexp_02.stopped,is_mismatch,is_prompt,key_resp.keys,key_resp.started,key_resp_prc.keys,key_resp_prc.started,key_resp_prc.stopped,match_idx,nonmatch_pres_side,notes,participant,psychopyVersion,settings.started,settings.stopped,sound_pres.started,sound_pres.stopped,sound_pres_prc.started,sound_pres_prc.stopped,spoken_word.started,spoken_word.stopped,spoken_word_prc.started,spoken_word_prc.stopped,thisN,thisRepN,thisRow.t,thisTrialN,trial_in_block,trials.continue_button_break.keys,trials.key_resp.keys,trials.thisIndex,trials.thisN,trials.thisRepN,trials.thisTrialN,trials_practice.key_resp_prc.keys,trials_practice.thisIndex,trials_practice.thisN,trials_practice.thisRepN,trials_practice.thisTrialN,word_shown_english,word_shown_french,word_shown_german,
,,,,,,,,,,,,,,,,,,,,,,,,,,,,,,,,,,,,,2026-07-20_18h15.02.978,,TSRlearn_localizer-concepts,2026-07-20 18h15.04.303248 +0200,,,,,,,,,60.10511182926164,,,,,,,,,,,,,,,,,,,,,,,,,,,,,,,,,,,,,,0,2025.2.4,0.011506700015161186,0.011575500015169382,,,,,,,,,,,,,,,,,,,,,,,,,,,,
,,,,,,,,,,,0.12777580000692979,g,4.724659799947403,0.055912200012244284,,,,,,,,,,,,,,,,,,,,,,,2026-07-20_18h15.02.978,,TSRlearn_localizer-concepts,2026-07-20 18h15.04.303248 +0200,,,,,,,,,60.10511182926164,,,,,,,,,,0.055912200012244284,,,,,,0.04076940001687035,4.913058000034653,,,,,,,,,,,,,,,,,,,,,0,2025.2.4,,,,,,,,,,,,,,,,,,,,,,,,,,,,,,
,,,,,,,,,,,,,,,0.10375760000897571,g,0.29921219998504966,4.929471100040246,,,,,,,,,,,,,,,,,,,2026-07-20_18h15.02.978,,TSRlearn_localizer-concepts,2026-07-20 18h15.04.303248 +0200,,,,,,,,,60.10511182926164,,,,,,,,,,,4.929471100040246,,,,,,,4.918755299993791,5.349060400039889,,,,,,,,,,,,,,,,,,,0,2025.2.4,,,,,,,,,,,,,,,,,,,,,,,,,,,,,,
,,,,,,,,,,,,,,,,,,,0.11246589996153489,g,0.38216650002868846,5.366238000045996,,,,,,,,,,,,,,,2026-07-20_18h15.02.978,,TSRlearn_localizer-concepts,2026-07-20 18h15.04.303248 +0200,,,,,,,,,60.10511182926164,,,,,,,,,,,,5.366238000045996,,,,,,,,5.358213100000285,5.864718600001652,,,,,,,,,,,,,,,,,0,2025.2.4,,,,,,,,,,,,,,,,,,,,,,,,,,,,,,
,,,,,,,,,,,,,,,,,,,,,,,,,,,,,,,0.10358840000117198,g,0.3318698999937624,5.880933700012974,,,2026-07-20_18h15.02.978,,TSRlearn_localizer-concepts,2026-07-20 18h15.04.303248 +0200,,,,,,,,,60.10511182926164,,,,,,,,,,,,,5.880933700012974,,,,,,,,,5.871919900004286,6.330691700044554,,,,,,,,,,,,,,,0,2025.2.4,,,,,,,,,,,,,,,,,,,,,,,,,,,,,,
,,0.75,8.835715399996843,9.59654410002986,,,,,,,,,,,,,,,,,,,,,,,,,,,,,,,,y,2026-07-20_18h15.02.978,,TSRlearn_localizer-concepts,2026-07-20 18h15.04.303248 +0200,,,,,,8.850813700002618,9.64031630003592,7.16156909998972,60.10511182926164,,,6.382433100021444,7.16156909998972,,,6.369751800026279,7.129385000036564,anchor.jpg,,,,,,,,,,,,,,,,,,,,,,,None,7.16156909998972,8.669162400008645,1,right,,0,2025.2.4,,,,,7.155964800040238,8.835658800031524,,,7.162579633361505,8.129371299990453,0,0,2026-07-20_18:15:10.675682,0,,,,,,,,None,0,0,0,0,anchor,ancre,Anker,
,,0.89,12.100757500040345,12.996565400040708,,,,,,,,,,,,,,,,,,,,,,,,,,,,,,,,r,2026-07-20_18h15.02.978,,TSRlearn_localizer-concepts,2026-07-20 18h15.04.303248 +0200,,,,,,12.117316999996547,13.033366399991792,10.418540799990296,60.10511182926164,,,9.64031630003592,10.418540799990296,,,9.630448600044474,10.38575790001778,ant.jpg,,,,,,,,,,,,,,,,,,,,,,,None,10.418540799990296,11.93400330003351,1,left,,0,2025.2.4,,,,,10.408726299996488,12.100705299992114,,,10.418870333357095,11.20508929999778,1,0,2026-07-20_18:15:13.933565,1,,,,,,,,None,1,1,0,1,ant,fourmi,Ameise,
,,0.85,15.480258600029629,16.329793800017796,,,,,,,,,,,,,,,,,,,,,,,,,,,,,,,,y,2026-07-20_18h15.02.978,,TSRlearn_localizer-concepts,2026-07-20 18h15.04.303248 +0200,,,,,,15.49621670000488,16.368170600035228,13.807121700025164,60.10511182926164,,,13.033366399991792,13.807121700025164,,,13.025448600004893,13.779725900036283,axe.jpg,,,,,,,,,,,,,,,,,,,,,,,None,13.807121700025164,15.313289200013969,0,left,,0,2025.2.4,,,,,13.801235200022347,15.480195600015577,,,13.812913533366132,14.763138700043783,2,0,2026-07-20_18:15:17.326615,2,,,,,,,,None,2,2,0,2,horse,cheval,Pferd,
,,1.01,18.83058660000097,19.84665700001642,,,,,,,,,,,,,,,,,,,,,,,,,,,,,,,,y,2026-07-20_18h15.02.978,,TSRlearn_localizer-concepts,2026-07-20 18h15.04.303248 +0200,,,,,,18.846511500014458,19.886995700013358,17.137465700041503,60.10511182926164,,,16.368170600035228,17.137465700041503,,,16.360874900012277,17.11329350003507,bus.jpg,,,,,,,,,,,,,,,,,,,,,,,None,17.137465700041503,18.646332300035283,1,right,,0,2025.2.4,,,,,17.132654000015464,18.83051970001543,,,17.146469033330987,18.113199900020845,3,0,2026-07-20_18:15:20.661419,3,,,,,,,,None,3,3,0,3,bus,bus,Bus,
,,1.04,22.34672650002176,23.39633270003833,,,,,,,,,,,,,,,,,,,,,,,,,,,,,,,,r,2026-07-20_18h15.02.978,,TSRlearn_localizer-concepts,2026-07-20 18h15.04.303248 +0200,,,,,,22.36322380002821,23.432093899988104,20.654893100028858,60.10511182926164,,,19.886995700013358,20.654893100028858,,,19.879489900020417,20.6302625000244,ball.jpg,,,,,,,,,,,,,,,,,,,,,,,None,20.654893100028858,22.16381400002865,0,right,,0,2025.2.4,,,,,20.649367600039113,22.346672300016508,,,20.663475333371508,21.614553300023545,4,0,2026-07-20_18:15:24.180244,4,,,,,,,,None,4,4,0,4,face,visage,Gesicht,
,,0.99,25.913655899988953,26.913991200039163,,,,,,,,,,,,,,,,,,,,,,,,,,,,,,,,y,2026-07-20_18h15.02.978,,TSRlearn_localizer-concepts,2026-07-20 18h15.04.303248 +0200,,,,,,25.929653600032907,26.948284500045702,24.20307240000693,60.10511182926164,,,23.432093899988104,24.20307240000693,,,23.424179600027855,24.179769700043835,banana.jpg,,,,,,,,,,,,,,,,,,,,,,,None,24.20307240000693,25.71348900004523,1,right,,0,2025.2.4,,,,,24.19768290000502,25.913592100027017,,,24.212994033362094,25.16368880000664,5,0,2026-07-20_18:15:27.725343,5,,,,,,,,None,5,5,0,5,banana,banane,Banane,
,,0.79,29.41324900003383,30.21331260004081,,,,,,,,,,,,,,,,,,,,,,,,,,,,,,,,r,2026-07-20_18h15.02.978,,TSRlearn_localizer-concepts,2026-07-20 18h15.04.303248 +0200,,,,,,29.429676300031133,30.256734199996572,27.7242838999955,60.10511182926164,,,26.948284500045702,27.7242838999955,,,26.940826800011564,27.697013200027868,glasses.jpg,,,,,,,,,,,,,,,,,,,,,,,None,27.7242838999955,29.230621900002006,1,left,,0,2025.2.4,,,,,27.71855400002096,29.413186700025108,,,27.730143433328095,28.71311940002488,6,0,2026-07-20_18:15:31.241533,6,,,,,,,,None,6,6,0,6,glasses,lunettes,Brille,
,,0.77,32.71339779999107,33.497382800036576,,,,,,,,,,,,,,,,,,,,,,,,,,,,,,,,y,2026-07-20_18h15.02.978,,TSRlearn_localizer-concepts,2026-07-20 18h15.04.303248 +0200,,,,,,32.73022140003741,33.54069110000273,31.01749669999117,60.10511182926164,,,30.256734199996572,31.01749669999117,,,30.249534200003836,30.996650200046133,basket.jpg,,,,,,,,,,,,,,,,,,,,,,,None,31.01749669999117,32.53005190001568,1,right,,0,2025.2.4,,,,,31.011884100036696,32.71334110002499,,,31.013187566659568,32.01369880000129,7,0,2026-07-20_18:15:34.549983,7,,,,,,,,None,7,7,0,7,basket,panier,Korb,
,,1.23,36.01376030000392,37.24689100001706,,,,,,,,,,,,,,,,,,,,,,,,,,,,,,,,r,2026-07-20_18h15.02.978,,TSRlearn_localizer-concepts,2026-07-20 18h15.04.303248 +0200,,,,,,36.03001829999266,37.28015750000486,34.31419930001721,60.10511182926164,,,33.54069110000273,34.31419930001721,,,33.53413129999535,34.281518700008746,bear.jpg,,,,,,,,,,,,,,,,,,,,,,,None,34.31419930001721,35.81423260003794,0,right,,0,2025.2.4,,,,,34.30524960003095,36.01370180002414,,,34.314593733354315,35.181026400008705,8,0,2026-07-20_18:15:37.833940,8,,,,,,,,None,8,8,0,8,milk,lait,Milch,
,,1.1,39.73108910000883,40.830412600014824,,,,,,,,,,,,,,,,,,,,,,,,,,,,,,,,y,2026-07-20_18h15.02.978,,TSRlearn_localizer-concepts,2026-07-20 18h15.04.303248 +0200,,,,,,39.74760930001503,40.86920710001141,38.03862790000858,60.10511182926164,,,37.28015750000486,38.03862790000858,,,37.27359709999291,38.013586800021585,belt.jpg,,,,,,,,,,,,,,,,,,,,,,,None,38.03862790000858,39.54718100000173,1,left,,0,2025.2.4,,,,,38.0333135999972,39.731041299994104,,,38.04680263333333,38.947073100018315,9,0,2026-07-20_18:15:41.573406,9,,,,,,,,None,9,9,0,9,belt,ceinture,Gürtel,
,,1.25,43.33089350000955,44.58129340002779,,,,,,,,,,,,,,,,,,,,,,,,,,,,,,,,y,2026-07-20_18h15.02.978,,TSRlearn_localizer-concepts,2026-07-20 18h15.04.303248 +0200,,,,,,43.34730480000144,44.69641380000394,41.64210340002319,60.10511182926164,,,40.86920710001141,41.64210340002319,,,40.86219010001514,41.614208000013605,bike.jpg,,,,,,,,,,,,,,,,,,,,,,,None,41.64210340002319,43.14764949999517,1,left,,0,2025.2.4,,,,,41.63636900001438,43.33084150002105,,,41.647330533371616,42.66339599998901,10,0,2026-07-20_18:15:45.162456,10,,,,,,,,None,10,10,0,10,bicycle,vélo,Fahrrad,
,,,,,,,,,,,,,,,,,,,,,,,0.16771199996583164,y,22.58195970003726,44.69641380000394,,,,,,,,,,,2026-07-20_18h15.02.978,,TSRlearn_localizer-concepts,2026-07-20 18h15.04.303248 +0200,,,,,,,,,60.10511182926164,,,,,,,,,,,,,,44.69641380000394,,,,,,,,,,44.69066260004183,67.44819700001972,,,,,,,,,,,,,0,2025.2.4,,,,,,,,,,,,,,,,,,,,,,,,,,,,,,
,,,,,,,,,,,,,,,,,,,,,,,,,,,0.1277373000048101,y,0.5659947999520227,67.46421330003068,,,,,,,2026-07-20_18h15.02.978,,TSRlearn_localizer-concepts,2026-07-20 18h15.04.303248 +0200,,,,,,,,,60.10511182926164,,,,,,,,,,,,,,,67.46421330003068,,,,,,,,,,,67.45511209999677,68.16441150003811,,,,,,,,,,,0,2025.2.4,,,,,,,,,,,,,,,,,,,,,,,,,,,,,,
70.85277029999997,71.78591810003854,0.92,,,1,71.7935403000447,71.79360189998988,bread,3,3,,,,,,,,,,,,,,,,,,,,,,,,,None,None,2026-07-20_18h15.02.978,19,TSRlearn_localizer-concepts,2026-07-20 18h15.04.303248 +0200,,69.15730970003642,70.8666508999886,70.8666508999886,71.83926400000928,,,,60.10511182926164,68.38686359999701,69.15730970003642,,,68.37572840001667,69.13186580000911,,,bread\bread_19.jpg,,,,,,,,,,,,,,,,,,,0,1,None,69.15730970003642,,,,,None,,0,2025.2.4,,,69.1501014000387,70.85269590001553,,,69.16499623336907,70.04858140001306,,,0,0,2026-07-20_18:16:12.680112,0,1,None,None,0,0,0,0,,,,,,bread,Pain,Brot,
74.31582270003855,75.49849450000329,1.18,,,1,75.49861890001921,75.49867940001423,chair,4,4,,,,,,,,,,,,,,,,,,,,,,,,,None,None,2026-07-20_18h15.02.978,27,TSRlearn_localizer-concepts,2026-07-20 18h15.04.303248 +0200,,72.6161130000255,74.33369870000752,74.33369870000752,75.56347890000325,,,,60.10511182926164,71.83926400000928,72.6161130000255,,,71.82492260000436,72.58727550000185,,,chair\chair_27.jpg,,,,,,,,,,,,,,,,,,,0,1,None,72.6161130000255,,,,,None,,0,2025.2.4,,,72.60426019999431,74.31574380001985,,,72.62037923333313,73.56504660000792,,,1,0,2026-07-20_18:16:16.132513,1,2,None,None,1,1,0,1,,,,,,chair,Chaise,Stuhl,
78.01536850002594,78.79827900003875,0.78,,,1,78.79835070000263,78.79838360002032,flower,6,6,,,,,,,,,,,,,,,,,,,,,,,,,None,None,2026-07-20_18h15.02.978,47,TSRlearn_localizer-concepts,2026-07-20 18h15.04.303248 +0200,,76.32735380000668,78.03200500004459,78.03200500004459,78.84715039998991,,,,60.10511182926164,75.56347890000325,76.32735380000668,,,75.54732310003601,76.29841540002963,,,flower\flower_47.jpg,,,,,,,,,,,,,,,,,,,0,1,None,76.32735380000668,,,,,None,,0,2025.2.4,,,76.31961230002344,78.015295899997,,,76.33155553334703,77.2987513000262,,,2,0,2026-07-20_18:16:19.856728,2,3,None,None,2,2,0,2,,,,,,flower,Fleur,Blume,
81.3043685000157,82.53648650000105,1.23,,,1,82.53657270001713,82.53661050001392,hammer,7,7,,,,,,,,,,,,,,,,,,,,,,,,,None,None,2026-07-20_18h15.02.978,42,TSRlearn_localizer-concepts,2026-07-20 18h15.04.303248 +0200,,79.6187427000259,81.3206046000123,81.3206046000123,82.57765729998937,,,,60.10511182926164,78.84715039998991,79.6187427000259,,,78.83942160004517,79.5875723999925,,,hammer\hammer_42.jpg,,,,,,,,,,,,,,,,,,,0,1,None,79.6187427000259,,,,,None,,0,2025.2.4,,,79.60646320000524,81.30428270000266,,,79.6206204333653,80.566449200036,,,3,0,2026-07-20_18:16:23.140399,3,4,None,None,3,3,0,3,,,,,,hammer,Marteau,Hammer,
85.04898640001193,86.28164180001477,1.23,,,1,86.28172520000953,86.28176510002231,jacket,10,3,,,,,,,,,,,,,,,,,,,,,,,,,None,r,2026-07-20_18h15.02.978,38,TSRlearn_localizer-concepts,2026-07-20 18h15.04.303248 +0200,,83.33616460004123,85.06559680000646,85.06559680000646,86.34236930002226,,,,60.10511182926164,82.57765729998937,83.33616460004123,,,82.56138940004166,83.32092580001336,,,jacket\jacket_38.jpg,,,,,,,,,,,,,,,,,,,1,1,None,83.33616460004123,,,,,left,,0,2025.2.4,,,83.32356250000885,85.04890009999508,,,83.33734066668355,84.23180800001137,,,4,0,2026-07-20_18:16:26.870906,4,5,None,None,4,4,0,4,,,,,,bread,Pain,Brot,
88.80130160000408,89.87073870003223,1.07,,,1,89.87081210000906,89.87084829999367,ball,1,1,,,,,,,,,,,,,,,,,,,,,,,,,None,None,2026-07-20_18h15.02.978,45,TSRlearn_localizer-concepts,2026-07-20 18h15.04.303248 +0200,,87.10461199999554,88.81715950003127,88.81715950003127,89.92102519999025,,,,60.10511182926164,86.34236930002226,87.10461199999554,,,86.32720300002256,87.08193280000705,,,ball\ball_45.jpg,,,,,,,,,,,,,,,,,,,0,1,None,87.10461199999554,,,,,None,,0,2025.2.4,,,87.09722530003637,88.80122920003487,,,87.09837506671126,88.05299440003,,,5,0,2026-07-20_18:16:30.635618,5,6,None,None,5,5,0,5,,,,,,ball,Ballon,Ball,
92.39864269999089,93.3818596000201,0.98,,,1,93.38194280001335,93.3819820000208,house,9,9,,,,,,,,,,,,,,,,,,,,,,,,,None,None,2026-07-20_18h15.02.978,17,TSRlearn_localizer-concepts,2026-07-20 18h15.04.303248 +0200,,90.70488810003735,92.41511649999302,92.41511649999302,93.46575820003636,,,,60.10511182926164,89.92102519999025,90.70488810003735,,,89.9054653000203,90.6698774000397,,,house\house_17.jpg,,,,,,,,,,,,,,,,,,,0,1,None,90.70488810003735,,,,,None,,0,2025.2.4,,,90.69264100003056,92.39857610000763,,,90.70298453333865,91.66965610004263,,,6,0,2026-07-20_18:16:34.214274,6,7,None,None,6,6,0,6,,,,,,house,Maison,Haus,
95.9330587000004,96.88747960003093,0.95,,,1,96.88755839999067,96.88760160002857,ball,1,1,,,,,,,,,,,,,,,,,,,,,,,,,None,None,2026-07-20_18h15.02.978,7,TSRlearn_localizer-concepts,2026-07-20 18h15.04.303248 +0200,,94.2150867000455,95.94854810001561,95.94854810001561,96.94076580001274,,,,60.10511182926164,93.46575820003636,94.2150867000455,,,93.44448960002046,94.19857070001308,,,ball\ball_07.jpg,,,,,,,,,,,,,,,,,,,0,1,None,94.2150867000455,,,,,None,,0,2025.2.4,,,94.20176399999764,95.93298030004371,,,94.21506146667913,95.1483423000318,,,7,0,2026-07-20_18:16:37.759007,7,8,None,None,7,7,0,7,,,,,,ball,Ballon,Ball,
99.40443650004454,100.5699081000057,1.16,,,1,100.5700141999987,100.57005460001528,hammer,7,7,,,,,,,,,,,,,,,,,,,,,,,,,None,None,2026-07-20_18h15.02.978,34,TSRlearn_localizer-concepts,2026-07-20 18h15.04.303248 +0200,,97.69852000003448,99.41986610001186,99.41986610001186,100.6341297000181,,,,60.10511182926164,96.94076580001274,97.69852000003448,,,96.92496890004259,97.68225880002137,,,hammer\hammer_34.jpg,,,,,,,,,,,,,,,,,,,0,1,None,97.69852000003448,,,,,None,,0,2025.2.4,,,97.68534580001142,99.40437540004496,,,97.69870256667879,98.65522280003643,,,8,0,2026-07-20_18:16:41.234015,8,9,None,None,8,8,0,8,,,,,,hammer,Marteau,Hammer,
103.09907340002246,104.34954309999011,1.25,,,1,104.34965290001128,104.34972120000748,hand,8,8,,,,,,,,,,,,,,,,,,,,,,,,,None,None,2026-07-20_18h15.02.978,5,TSRlearn_localizer-concepts,2026-07-20 18h15.04.303248 +0200,,101.41160910000326,103.11560770001961,103.11560770001961,104.41071930003818,,,,60.10511182926164,100.6341297000181,101.41160910000326,,,100.61627130000852,101.38248319999548,,,hand\hand_05.jpg,,,,,,,,,,,,,,,,,,,0,1,None,101.41160910000326,,,,,None,,0,2025.2.4,,,101.40385200001765,103.09901240002364,,,101.4155886333397,102.26504920003936,,,9,0,2026-07-20_18:16:44.927378,9,10,None,None,9,9,0,9,,,,,,hand,Main,Hand,
106.87545480002882,107.80457919999026,0.92,,,1,107.8046553999884,107.80469620000804,bicycle,2,2,,,,,,,,,,,,,,,,,,,,,,,,,None,None,2026-07-20_18h15.02.978,45,TSRlearn_localizer-concepts,2026-07-20 18h15.04.303248 +0200,,105.16983460000483,106.88680740003474,106.88680740003474,107.84114110004157,,,,60.10511182926164,104.41071930003818,105.16983460000483,,,104.39451180002652,105.15356190002058,,,bicycle\bicycle_45.jpg,,,,,,,,,,,,,,,,,,,0,1,None,105.16983460000483,,,,,None,,0,2025.2.4,,,105.1570900999941,106.87536400003592,,,105.17000226671031,106.18789440003457,,,10,0,2026-07-20_18:16:48.703968,10,11,None,None,10,10,0,10,,,,,,bicycle,Vélo,Fahrrad,
110.30017200001748,111.09913270000834,0.79,,,1,111.09921670000767,111.09925369999837,house,9,9,,,,,,,,,,,,,,,,,,,,,,,,,None,None,2026-07-20_18h15.02.978,7,TSRlearn_localizer-concepts,2026-07-20 18h15.04.303248 +0200,,108.60282229998847,110.31621970003471,110.31621970003471,111.13032320002094,,,,60.10511182926164,107.84114110004157,108.60282229998847,,,107.82623130001593,108.58672730001854,,,house\house_07.jpg,,,,,,,,,,,,,,,,,,,0,1,None,108.60282229998847,,,,,None,,0,2025.2.4,,,108.58966669999063,110.30010330001824,,,108.60311726667375,109.56630649999715,,,11,0,2026-07-20_18:16:52.134390,11,12,None,None,11,11,0,11,,,,,,house,Maison,Haus,
113.58369960001437,114.78344279999146,1.19,,,1,114.78351690003183,114.78355749999173,dog,5,5,,,,,,,,,,,,,,,,,,,,,,,,,None,None,2026-07-20_18h15.02.978,39,TSRlearn_localizer-concepts,2026-07-20 18h15.04.303248 +0200,,111.88919320004061,113.60109170002397,113.60109170002397,114.8267848000396,,,,60.10511182926164,111.13032320002094,111.88919320004061,,,111.12331910000648,111.86605980002787,,,dog\dog_39.jpg,,,,,,,,,,,,,,,,,,,0,1,None,111.88919320004061,,,,,None,,0,2025.2.4,,,111.88179920002585,113.58363220002502,,,111.88254056667598,112.82128309999825,,,12,0,2026-07-20_18:16:55.423572,12,13,None,None,12,12,0,12,,,,,,dog,Chien,Hund,
117.28275060001761,118.1492406000034,0.86,,,1,118.14930690004257,118.14934250002261,hand,8,8,,,,,,,,,,,,,,,,,,,,,,,,,None,None,2026-07-20_18h15.02.978,18,TSRlearn_localizer-concepts,2026-07-20 18h15.04.303248 +0200,,115.58704390004277,117.29909440001938,117.29909440001938,118.19545669999206,,,,60.10511182926164,114.8267848000396,115.58704390004277,,,114.8178184000426,115.57192620000569,,,hand\hand_18.jpg,,,,,,,,,,,,,,,,,,,0,1,None,115.58704390004277,,,,,None,,0,2025.2.4,,,115.57471770001575,117.28268430003664,,,115.58830356668138,116.4380885999999,,,13,0,2026-07-20_18:16:59.120034,13,14,None,None,13,13,0,13,,,,,,hand,Main,Hand,
120.65014620003058,121.75198880000971,1.09,,,1,121.7520618000417,121.75210209999932,dog,5,5,,,,,,,,,,,,,,,,,,,,,,,,,None,None,2026-07-20_18h15.02.978,30,TSRlearn_localizer-concepts,2026-07-20 18h15.04.303248 +0200,,118.9489665000001,120.67033150000498,120.67033150000498,121.7864993000403,,,,60.10511182926164,118.19545669999206,118.9489665000001,,,118.18783370003803,118.93272740003886,,,dog\dog_30.jpg,,,,,,,,,,,,,,,,,,,0,1,None,118.9489665000001,,,,,None,,0,2025.2.4,,,118.93604689999484,120.6500711000408,,,118.94919546670668,119.86573880002834,,,14,0,2026-07-20_18:17:02.488705,14,15,None,None,14,14,0,14,,,,,,dog,Chien,Hund,
124.2543924000347,125.08320550003555,0.82,,,1,125.08327280002413,125.08330850000493,hammer,7,8,,,,,,,,,,,,,,,,,,,,,,,,,None,r,2026-07-20_18h15.02.978,7,TSRlearn_localizer-concepts,2026-07-20 18h15.04.303248 +0200,,122.54937490000157,124.27038510004058,124.27038510004058,125.14082999998936,,,,60.10511182926164,121.7864993000403,122.54937490000157,,,121.77675140002975,122.5329144000425,,,hammer\hammer_07.jpg,,,,,,,,,,,,,,,,,,,1,1,None,122.54937490000157,,,,,left,,0,2025.2.4,,,122.53560940001626,124.25429960002657,,,122.54937326669848,123.38716390001355,,,15,0,2026-07-20_18:17:06.079748,15,16,None,None,15,15,0,15,,,,,,hand,Main,Hand,
127.61645020003198,128.51611160003813,0.89,,,1,128.516187500034,128.5162302000099,chair,4,4,,,,,,,,,,,,,,,,,,,,,,,,,None,None,2026-07-20_18h15.02.978,45,TSRlearn_localizer-concepts,2026-07-20 18h15.04.303248 +0200,,125.89975510002114,127.63272059999872,127.63272059999872,128.55807070003357,,,,60.10511182926164,125.14082999998936,125.89975510002114,,,125.1286954000243,125.88304310000967,,,chair\chair_45.jpg,,,,,,,,,,,,,,,,,,,0,1,None,125.89975510002114,,,,,None,,0,2025.2.4,,,125.8859118000255,127.61637490004068,,,125.89950076665652,126.83272160001798,,,16,0,2026-07-20_18:17:09.434079,16,17,None,None,16,16,0,16,,,,,,chair,Chaise,Stuhl,
131.03356469998835,132.27636250003707,1.23,,,1,132.27645569999004,132.27650440001162,jacket,10,10,,,,,,,,,,,,,,,,,,,,,,,,,None,None,2026-07-20_18h15.02.978,17,TSRlearn_localizer-concepts,2026-07-20 18h15.04.303248 +0200,,129.33686500001932,131.04993380000815,131.04993380000815,132.31213360000402,,,,60.10511182926164,128.55807070003357,129.33686500001932,,,128.5490354000358,129.30266809999011,,,jacket\jacket_17.jpg,,,,,,,,,,,,,,,,,,,0,1,None,129.33686500001932,,,,,None,,0,2025.2.4,,,129.32522659999086,131.03349170001457,,,129.3357778333671,130.2996884000022,,,17,0,2026-07-20_18:17:12.851319,17,18,None,None,17,17,0,17,,,,,,jacket,Veste,Jacke,
134.76653230004013,135.71634859999176,0.95,,,1,135.71642720000818,135.71646010002587,chair,4,4,,,,,,,,,,,,,,,,,,,,,,,,,None,None,2026-07-20_18h15.02.978,6,TSRlearn_localizer-concepts,2026-07-20 18h15.04.303248 +0200,,133.06648780003889,134.78287960001035,134.78287960001035,135.75187070004176,,,,60.10511182926164,132.31213360000402,133.06648780003889,,,132.29932089999784,133.05011960002594,,,chair\chair_06.jpg,,,,,,,,,,,,,,,,,,,0,1,None,133.06648780003889,,,,,None,,0,2025.2.4,,,133.05310399999144,134.76647299999604,,,133.06658096670097,133.99948520003818,,,18,0,2026-07-20_18:17:16.605382,18,19,None,None,18,18,0,18,,,,,,chair,Chaise,Stuhl,
138.21731750003528,139.16674559999956,0.94,,,1,139.16685010003857,139.16689769999357,flower,6,6,,,,,,,,,,,,,,,,,,,,,,,,,None,None,2026-07-20_18h15.02.978,14,TSRlearn_localizer-concepts,2026-07-20 18h15.04.303248 +0200,,136.51900480000768,138.23846349999076,138.23846349999076,139.23199699999532,,,,60.10511182926164,135.75187070004176,136.51900480000768,,,135.7448283000267,136.4888546000002,,,flower\flower_14.jpg,,,,,,,,,,,,,,,,,,,0,1,None,136.51900480000768,,,,,None,,0,2025.2.4,,,136.50685510004405,138.21724259998882,,,136.5218657333249,137.4874588000239,,,19,0,2026-07-20_18:17:20.045119,19,20,None,None,19,19,0,19,,,,,,flower,Fleur,Blume,
141.700003200036,142.83334630000172,1.12,,,1,142.83343490003608,142.83347370004049,bread,3,3,,,,,,,,,,,,,,,,,,,,,,,,,None,None,2026-07-20_18h15.02.978,48,TSRlearn_localizer-concepts,2026-07-20 18h15.04.303248 +0200,,139.98748370003887,141.7165176999988,141.7165176999988,142.86209800001234,,,,60.10511182926164,139.23199699999532,139.98748370003887,,,139.21372770000016,139.97219510003924,,,bread\bread_48.jpg,,,,,,,,,,,,,,,,,,,0,1,None,139.98748370003887,,,,,None,,0,2025.2.4,,,139.97518390003825,141.6999354000436,,,139.98864076671114,140.8738562000217,,,20,0,2026-07-20_18:17:23.525246,20,21,None,None,20,20,0,20,,,,,,bread,Pain,Brot,
145.31687239999883,146.250483300013,0.92,,,1,146.250560400018,146.25060710002435,bicycle,2,2,,,,,,,,,,,,,,,,,,,,,,,,,None,None,2026-07-20_18h15.02.978,46,TSRlearn_localizer-concepts,2026-07-20 18h15.04.303248 +0200,,143.61665050004376,145.33664920000592,145.33664920000592,146.33858330000658,,,,60.10511182926164,142.86209800001234,143.61665050004376,,,142.85364210000262,143.6002645000117,,,bicycle\bicycle_46.jpg,,,,,,,,,,,,,,,,,,,0,1,None,143.61665050004376,,,,,None,,0,2025.2.4,,,143.60340469999937,145.3168119000038,,,143.61669786670635,144.63430800003698,,,21,0,2026-07-20_18:17:27.155347,21,22,None,None,21,21,0,21,,,,,,bicycle,Vélo,Fahrrad,
148.80092940002214,149.96665580000263,1.16,,,1,149.96673159999773,149.96676600002684,ball,1,1,,,,,,,,,,,,,,,,,,,,,,,,,None,None,2026-07-20_18h15.02.978,5,TSRlearn_localizer-concepts,2026-07-20 18h15.04.303248 +0200,,147.1056729000411,148.8170395999914,148.8170395999914,150.0107881000149,,,,60.10511182926164,146.33858330000658,147.1056729000411,,,146.31120160000864,147.0880505000241,,,ball\ball_05.jpg,,,,,,,,,,,,,,,,,,,0,1,None,147.1056729000411,,,,,None,,0,2025.2.4,,,147.09277129999828,148.8008586000069,,,147.1044325666774,148.05047469999408,,,22,0,2026-07-20_18:17:30.631832,22,23,None,None,22,22,0,22,,,,,,ball,Ballon,Ball,
152.46964409999782,153.43377300002612,0.95,,,1,153.43384250003146,153.43388230004348,jacket,10,10,,,,,,,,,,,,,,,,,,,,,,,,,None,None,2026-07-20_18h15.02.978,35,TSRlearn_localizer-concepts,2026-07-20 18h15.04.303248 +0200,,150.76660959998844,152.48494330001995,152.48494330001995,153.46656600001734,,,,60.10511182926164,150.0107881000149,150.76660959998844,,,150.0018235000316,150.7502481000265,,,jacket\jacket_35.jpg,,,,,,,,,,,,,,,,,,,0,1,None,150.76660959998844,,,,,None,,0,2025.2.4,,,150.75304189999588,152.46958090004046,,,150.76670306671102,151.7167247000034,,,23,0,2026-07-20_18:17:34.304037,23,24,None,None,23,23,0,23,,,,,,jacket,Veste,Jacke,
155.93839530000696,157.0381583000417,1.09,,,1,157.03824710001936,157.03828670002986,hand,8,2,,,,,,,,,,,,,,,,,,,,,,,,,None,r,2026-07-20_18h15.02.978,38,TSRlearn_localizer-concepts,2026-07-20 18h15.04.303248 +0200,,154.22110870003235,155.95455690001836,155.95455690001836,157.10218000004534,,,,60.10511182926164,153.46656600001734,154.22110870003235,,,153.45767590001924,154.20497040002374,,,hand\hand_38.jpg,,,,,,,,,,,,,,,,,,,1,1,None,154.22110870003235,,,,,left,,0,2025.2.4,,,154.20828690001508,155.93831880000653,,,154.22140836669521,155.23778950003907,,,24,0,2026-07-20_18:17:37.759815,24,25,None,None,24,24,0,24,,,,,,bicycle,Vélo,Fahrrad,
159.5676078000106,160.50154490000568,0.91,,,1,160.5016203999985,160.50166030001128,flower,6,6,,,,,,,,,,,,,,,,,,,,,,,,,None,None,2026-07-20_18h15.02.978,40,TSRlearn_localizer-concepts,2026-07-20 18h15.04.303248 +0200,,157.86683180002728,159.5921495000366,159.5921495000366,160.54562670004088,,,,60.10511182926164,157.10218000004534,157.86683180002728,,,157.0883025000221,157.85044000000926,,,flower\flower_40.jpg,,,,,,,,,,,,,,,,,,,0,1,None,157.86683180002728,,,,,None,,0,2025.2.4,,,157.85323730000528,159.5675185000291,,,157.86689816665992,158.834006900026,,,25,0,2026-07-20_18:17:41.395429,25,26,None,None,25,25,0,25,,,,,,flower,Fleur,Blume,
163.0060715000145,164.22177340002963,1.21,,,1,164.22189190000063,164.22195480001392,house,9,9,,,,,,,,,,,,,,,,,,,,,,,,,None,None,2026-07-20_18h15.02.978,34,TSRlearn_localizer-concepts,2026-07-20 18h15.04.303248 +0200,,161.30034800001886,163.02139810001245,163.02139810001245,164.25663720001467,,,,60.10511182926164,160.54562670004088,161.30034800001886,,,160.53463100001682,161.28411659999983,,,house\house_34.jpg,,,,,,,,,,,,,,,,,,,0,1,None,161.30034800001886,,,,,None,,0,2025.2.4,,,161.28720970003633,163.00599370000418,,,161.30057056667673,162.2676175000379,,,26,0,2026-07-20_18:17:44.838875,26,27,None,None,26,26,0,26,,,,,,house,Maison,Haus,
166.7338684000424,167.76775970001472,1.03,,,1,167.767843300011,167.76788610004587,dog,5,5,,,,,,,,,,,,,,,,,,,,,,,,,None,None,2026-07-20_18h15.02.978,5,TSRlearn_localizer-concepts,2026-07-20 18h15.04.303248 +0200,,165.02152900001965,166.750245800009,166.750245800009,167.8146816000226,,,,60.10511182926164,164.25663720001467,165.02152900001965,,,164.2438547000056,165.00519120000536,,,dog\dog_05.jpg,,,,,,,,,,,,,,,,,,,0,1,None,165.02152900001965,,,,,None,,0,2025.2.4,,,165.00889789999928,166.73379399999976,,,165.0216354666666,165.95025590003934,,,27,0,2026-07-20_18:17:48.549886,27,28,None,None,27,27,0,27,,,,,,dog,Chien,Hund,
170.27188250003383,171.25652779999655,0.98,,,1,171.25661209999816,171.2566567999893,hand,8,8,,,,,,,,,,,,,,,,,,,,,,,,,None,None,2026-07-20_18h15.02.978,10,TSRlearn_localizer-concepts,2026-07-20 18h15.04.303248 +0200,,168.56698290002532,170.28826560004381,170.28826560004381,171.3126353000407,,,,60.10511182926164,167.8146816000226,168.56698290002532,,,167.80487019999418,168.55056740000146,,,hand\hand_10.jpg,,,,,,,,,,,,,,,,,,,0,1,None,168.56698290002532,,,,,None,,0,2025.2.4,,,168.5532857000362,170.2717923000455,,,168.56705816666752,169.40486340003554,,,28,0,2026-07-20_18:17:52.107930,28,29,None,None,28,28,0,28,,,,,,hand,Main,Hand,
173.785248900007,174.85047810000833,1.05,,,1,174.85056829999667,174.8506101000239,flower,6,6,,,,,,,,,,,,,,,,,,,,,,,,,None,None,2026-07-20_18h15.02.978,32,TSRlearn_localizer-concepts,2026-07-20 18h15.04.303248 +0200,,172.07160130003467,173.8031478000339,173.8031478000339,174.8825452000019,,,,60.10511182926164,171.3126353000407,172.07160130003467,,,171.2986522000283,172.05521150003187,,,flower\flower_32.jpg,,,,,,,,,,,,,,,,,,,0,1,None,172.07160130003467,,,,,None,,0,2025.2.4,,,172.05831190000754,173.78518310002983,,,172.0716280666568,173.03935810003895,,,29,0,2026-07-20_18:17:55.605884,29,30,None,None,29,29,0,29,,,,,,flower,Fleur,Blume,
177.3347510000458,178.10405670001637,0.77,,,1,178.10413069999777,178.10417060001055,hammer,7,7,,,,,,,,,,,,,,,,,,,,,,,,,None,None,2026-07-20_18h15.02.978,27,TSRlearn_localizer-concepts,2026-07-20 18h15.04.303248 +0200,,175.63366690004477,177.35041320003802,177.35041320003802,178.14131520001683,,,,60.10511182926164,174.8825452000019,175.63366690004477,,,174.87563600001158,175.61726130003808,,,hammer\hammer_27.jpg,,,,,,,,,,,,,,,,,,,0,1,None,175.63366690004477,,,,,None,,0,2025.2.4,,,175.6201512000407,177.3346801000298,,,175.63378146669518,176.58404590003192,,,30,0,2026-07-20_18:17:59.175794,30,31,None,None,30,30,0,30,,,,,,hammer,Marteau,Hammer,
180.58996910002315,181.70126870000968,1.11,,,1,181.70134480000706,181.70138540002517,dog,5,5,,,,,,,,,,,,,,,,,,,,,,,,,None,None,2026-07-20_18h15.02.978,6,TSRlearn_localizer-concepts,2026-07-20 18h15.04.303248 +0200,,178.90519090002635,180.60126309999032,180.60126309999032,181.74849020002875,,,,60.10511182926164,178.14131520001683,178.90519090002635,,,178.134164099989,178.8861692000064,,,dog\dog_06.jpg,,,,,,,,,,,,,,,,,,,0,1,None,178.90519090002635,,,,,None,,0,2025.2.4,,,178.88941800000612,180.5898964999942,,,178.90260356670868,179.8406748000416,,,31,0,2026-07-20_18:18:02.434564,31,32,None,None,31,31,0,31,,,,,,dog,Chien,Hund,
184.21750660002,185.13463410001714,0.91,,,1,185.13472440000623,185.13476450002054,flower,6,6,,,,,,,,,,,,,,,,,,,,,,,,,None,None,2026-07-20_18h15.02.978,4,TSRlearn_localizer-concepts,2026-07-20 18h15.04.303248 +0200,,182.50055050000083,184.23494260001462,184.23494260001462,185.20969759998843,,,,60.10511182926164,181.74849020002875,182.50055050000083,,,181.74055769998813,182.48458960000426,,,flower\flower_04.jpg,,,,,,,,,,,,,,,,,,,0,1,None,182.50055050000083,,,,,None,,0,2025.2.4,,,182.4874867000035,184.2174420999945,,,182.50106086669646,183.46773820003727,,,32,0,2026-07-20_18:18:06.041739,32,33,None,None,32,32,0,32,,,,,,flower,Fleur,Blume,
187.6730478000245,188.5018786000437,0.82,,,1,188.50195800000802,188.50200400000904,ball,1,1,,,,,,,,,,,,,,,,,,,,,,,,,None,None,2026-07-20_18h15.02.978,11,TSRlearn_localizer-concepts,2026-07-20 18h15.04.303248 +0200,,185.97201220004354,187.68941370001994,187.68941370001994,188.5416755999904,,,,60.10511182926164,185.20969759998843,185.97201220004354,,,185.1936872000224,185.9552040999988,,,ball\ball_11.jpg,,,,,,,,,,,,,,,,,,,0,1,None,185.97201220004354,,,,,None,,0,2025.2.4,,,185.95828650001204,187.67298550001578,,,185.9716505666768,186.92208570003277,,,33,0,2026-07-20_18:18:09.502946,33,34,None,None,33,33,0,33,,,,,,ball,Ballon,Ball,
191.0011480000103,191.95088580000447,0.95,,,1,191.950977600005,191.95102610002505,jacket,10,10,,,,,,,,,,,,,,,,,,,,,,,,,None,None,2026-07-20_18h15.02.978,11,TSRlearn_localizer-concepts,2026-07-20 18h15.04.303248 +0200,,189.30084030004218,191.01730380003573,191.01730380003573,191.9795415000408,,,,60.10511182926164,188.5416755999904,189.30084030004218,,,188.52667240001028,189.28430410003057,,,jacket\jacket_11.jpg,,,,,,,,,,,,,,,,,,,0,1,None,189.30084030004218,,,,,None,,0,2025.2.4,,,189.28723130002618,191.00106199999573,,,189.3007721666984,190.2691450000275,,,34,0,2026-07-20_18:18:12.834924,34,35,None,None,34,34,0,34,,,,,,jacket,Veste,Jacke,
194.4371505000163,195.40118420001818,0.96,,,1,195.401257599995,195.40129910001997,house,9,9,,,,,,,,,,,,,,,,,,,,,,,,,None,None,2026-07-20_18h15.02.978,13,TSRlearn_localizer-concepts,2026-07-20 18h15.04.303248 +0200,,192.7341326000169,194.45106950000627,194.45106950000627,195.43079700000817,,,,60.10511182926164,191.9795415000408,192.7341326000169,,,191.97252549999394,192.71786550001707,,,house\house_13.jpg,,,,,,,,,,,,,,,,,,,0,1,None,192.7341326000169,,,,,None,,0,2025.2.4,,,192.7205810000305,194.43707839999115,,,192.73436166666605,193.7006524000317,,,35,0,2026-07-20_18:18:16.272790,35,36,None,None,35,35,0,35,,,,,,house,Maison,Haus,
197.8866774000344,199.13497370004188,1.24,,,1,199.1350678000017,199.13510840001982,bicycle,2,2,,,,,,,,,,,,,,,,,,,,,,,,,None,None,2026-07-20_18h15.02.978,6,TSRlearn_localizer-concepts,2026-07-20 18h15.04.303248 +0200,,196.1845909000258,197.90216540003894,197.90216540003894,199.23829639999894,,,,60.10511182926164,195.43079700000817,196.1845909000258,,,195.42392480000854,196.167880300025,,,bicycle\bicycle_06.jpg,,,,,,,,,,,,,,,,,,,0,1,None,196.1845909000258,,,,,None,,0,2025.2.4,,,196.17096240003593,197.8866049000062,,,196.1843691666766,197.20164179999847,,,36,0,2026-07-20_18:18:19.724046,36,37,None,None,36,36,0,36,,,,,,bicycle,Vélo,Fahrrad,
201.70303939998848,202.85143640002934,1.15,,,1,202.8515100000077,202.85154270002386,bread,3,3,,,,,,,,,,,,,,,,,,,,,,,,,None,None,2026-07-20_18h15.02.978,15,TSRlearn_localizer-concepts,2026-07-20 18h15.04.303248 +0200,,200.00116119999439,201.71777270000894,201.71777270000894,202.88845140003832,,,,60.10511182926164,199.23829639999894,200.00116119999439,,,199.2209908000077,199.98466080002254,,,bread\bread_15.jpg,,,,,,,,,,,,,,,,,,,0,1,None,200.00116119999439,,,,,None,,0,2025.2.4,,,199.9876109000179,201.70297169999685,,,200.00120686670223,200.8845030000084,,,37,0,2026-07-20_18:18:23.531545,37,38,None,None,37,37,0,37,,,,,,bread,Pain,Brot,
205.35582520003663,206.41807210003026,1.06,,,1,206.41815030004364,206.41818860004423,house,9,5,,,,,,,,,,,,,,,,,,,,,,,,,None,r,2026-07-20_18h15.02.978,40,TSRlearn_localizer-concepts,2026-07-20 18h15.04.303248 +0200,,203.65139200002886,205.37260360002983,205.37260360002983,206.45049519999884,,,,60.10511182926164,202.88845140003832,203.65139200002886,,,202.87388900003862,203.63502869999502,,,house\house_40.jpg,,,,,,,,,,,,,,,,,,,1,1,None,203.65139200002886,,,,,right,,0,2025.2.4,,,203.638063099992,205.35574100003578,,,203.65149526670965,204.5842141000321,,,38,0,2026-07-20_18:18:27.181700,38,39,None,None,38,38,0,38,,,,,,dog,Chien,Hund,
208.88539579999633,209.70135290001053,0.81,,,1,209.7014552000328,209.70149569999194,bicycle,2,2,,,,,,,,,,,,,,,,,,,,,,,,,None,None,2026-07-20_18h15.02.978,13,TSRlearn_localizer-concepts,2026-07-20 18h15.04.303248 +0200,,207.20214220002526,208.90393640002003,208.90393640002003,209.7440304000047,,,,60.10511182926164,206.45049519999884,207.20214220002526,,,206.44382490002317,207.18484360002913,,,bicycle\bicycle_13.jpg,,,,,,,,,,,,,,,,,,,0,1,None,207.20214220002526,,,,,None,,0,2025.2.4,,,207.18803750001825,208.88533210003516,,,207.20139506669173,208.2181758999941,,,39,0,2026-07-20_18:18:30.743744,39,40,None,None,39,39,0,39,,,,,,bicycle,Vélo,Fahrrad,
,,1.19,,,1,,,bread,3,3,,,,,,,,,,,,,,,,,,,,,,,,,,None,,21,,,,,,,,,,,,209.7440304000047,,,,209.7358549000346,,,,bread\bread_21.jpg,,,,,,,,,,,,,,,,,,,0,1,,,,,,,None,,,,,,,,,,,,,,40,0,2026-07-20_18:18:34.037279,40,41,,,40,40,0,40,,,,,,bread,Pain,Brot,
