subject	block_num	trial_num	component_label	onset	duration	type_of_stimulus	concept_label	concept_examplar	response_time	response	expected_response	wrd_img_match	correct
0	n/a	n/a	instruction_part1	0.05098080000607297	4.823837600008119	instructions	n/a	n/a	n/a	n/a	n/a	n/a	n/a
0	n/a	n/a	instruction_part2	4.889973099983763	4.112546000047587	instructions	n/a	n/a	n/a	n/a	n/a	n/a	n/a
0	n/a	n/a	instruction_part3	9.023139600001741	19.088497999997344	instructions	n/a	n/a	n/a	n/a	n/a	n/a	n/a
0	n/a	n/a	instruction_part4	28.127992400026415	6.76534119999269	instructions	n/a	n/a	n/a	n/a	n/a	n/a	n/a
0	n/a	n/a	instruction_start	73.29867019999074	108.26501999999164	instructions	n/a	n/a	n/a	n/a	n/a	n/a	n/a
0	n/a	n/a	instruction_start_2	181.57963590003783	n/a	instructions	n/a	n/a	n/a	n/a	n/a	n/a	n/a
0	1	1	image	189.93845620000502	0.7557225666862735	image	bread	bread_19.jpg	n/a	n/a	n/a	1	n/a
0	1	1	word	190.6941787666913	0.9328322999645025	word	Brot_german	n/a	n/a	n/a	n/a	1	n/a
0	1	1	possible_button_press	192.39378500002204	0.0	response	n/a	n/a	[]	m	m	1	1
0	1	1	fix_cross_after_trial	192.41016470000613	0.9333308666867026	fixation cross	n/a	n/a	n/a	n/a	n/a	n/a	n/a
0	1	2	image	193.36591059999773	0.7646238666532383	image	chair	chair_27.jpg	n/a	n/a	n/a	1	n/a
0	1	2	word	194.13053446665097	0.5515847000060603	word	Stuhl_german	n/a	n/a	n/a	n/a	1	n/a
0	1	2	possible_button_press	195.84234760003164	0.0	response	n/a	n/a	[]	m	m	1	1
0	1	2	fix_cross_after_trial	195.85888640000485	1.1846098666467526	fixation cross	n/a	n/a	n/a	n/a	n/a	n/a	n/a
0	1	3	image	197.09165469999425	0.7500250666674049	image	flower	flower_47.jpg	n/a	n/a	n/a	1	n/a
0	1	3	word	197.84167976666166	0.889007700025104	word	Blume_german	n/a	n/a	n/a	n/a	1	n/a
0	1	3	possible_button_press	199.55791450000834	0.0	response	n/a	n/a	[]	m	m	1	1
0	1	3	fix_cross_after_trial	199.57411049999064	0.7834225666631767	fixation cross	n/a	n/a	n/a	n/a	n/a	n/a	n/a
0	1	4	image	200.3890865999856	0.755736766677984	image	hammer	hammer_42.jpg	n/a	n/a	n/a	1	n/a
0	1	4	word	201.1448233666636	0.5156979000312276	word	Hammer_german	n/a	n/a	n/a	n/a	1	n/a
0	1	4	possible_button_press	202.84034270001575	0.0	response	n/a	n/a	[]	m	m	1	1
0	1	4	fix_cross_after_trial	202.86020920000738	1.229254766662308	fixation cross	n/a	n/a	n/a	n/a	n/a	n/a	n/a
0	1	5	image	204.10153670003638	0.7547596666302354	image	jacket	jacket_38.jpg	n/a	n/a	n/a	0	n/a
0	1	5	word	204.8562963666666	0.9164612999884412	word	Brot_german	n/a	n/a	n/a	n/a	0	n/a
0	1	5	possible_button_press	206.55574630002957	0.0	response	n/a	n/a	[]	m	r	0	0
0	1	5	fix_cross_after_trial	206.57190490001813	1.2330718666819678	fixation cross	n/a	n/a	n/a	n/a	n/a	n/a	n/a
0	1	6	image	207.8468845000025	0.7581585666669355	image	ball	ball_45.jpg	n/a	n/a	n/a	1	n/a
0	1	6	word	208.60504306666942	0.7714036999968812	word	Ball_german	n/a	n/a	n/a	n/a	1	n/a
0	1	6	possible_button_press	210.32667189999484	0.0	response	n/a	n/a	[]	m	m	1	1
0	1	6	fix_cross_after_trial	210.34205289999954	1.07872876665013	fixation cross	n/a	n/a	n/a	n/a	n/a	n/a	n/a
0	1	7	image	211.4498242000118	0.7546110666628749	image	house	house_17.jpg	n/a	n/a	n/a	1	n/a
0	1	7	word	212.20443526667466	0.5496455000247806	word	Haus_german	n/a	n/a	n/a	n/a	1	n/a
0	1	7	possible_button_press	213.91993750003166	0.0	response	n/a	n/a	[]	m	m	1	1
0	1	7	fix_cross_after_trial	213.936683500011	0.9828077666500405	fixation cross	n/a	n/a	n/a	n/a	n/a	n/a	n/a
0	1	8	image	215.02548270003172	0.7614039666407564	image	ball	ball_07.jpg	n/a	n/a	n/a	1	n/a
0	1	8	word	215.78688666667247	0.7657574000186287	word	Ball_german	n/a	n/a	n/a	n/a	1	n/a
0	1	8	possible_button_press	217.4859928000369	0.0	response	n/a	n/a	[]	m	m	1	1
0	1	8	fix_cross_after_trial	217.50212499999907	0.9502281666539432	fixation cross	n/a	n/a	n/a	n/a	n/a	n/a	n/a
0	1	9	image	218.4805062999949	0.758680766685103	image	hammer	hammer_34.jpg	n/a	n/a	n/a	1	n/a
0	1	9	word	219.23918706668	0.52841199998511	word	Hammer_german	n/a	n/a	n/a	n/a	1	n/a
0	1	9	possible_button_press	220.95246820000466	0.0	response	n/a	n/a	[]	m	m	1	1
0	1	9	fix_cross_after_trial	220.96745160000864	1.1665268666731947	fixation cross	n/a	n/a	n/a	n/a	n/a	n/a	n/a
0	1	10	image	222.1742830000003	0.7595295666872346	image	hand	hand_05.jpg	n/a	n/a	n/a	1	n/a
0	1	10	word	222.93381256668752	0.48691340000368655	word	Hand_german	n/a	n/a	n/a	n/a	1	n/a
0	1	10	possible_button_press	224.6336800000281	0.0	response	n/a	n/a	[]	m	m	1	1
0	1	10	fix_cross_after_trial	224.64981570001692	1.250171866679267	fixation cross	n/a	n/a	n/a	n/a	n/a	n/a	n/a
0	1	11	image	225.9361157999956	0.7639080666743041	image	bicycle	bicycle_45.jpg	n/a	n/a	n/a	1	n/a
0	1	11	word	226.7000238666699	0.7157743999850936	word	Fahrrad_german	n/a	n/a	n/a	n/a	1	n/a
0	1	11	possible_button_press	228.40005370002473	0.0	response	n/a	n/a	[]	m	m	1	1
0	1	11	fix_cross_after_trial	228.41617079998832	0.9332017666932018	fixation cross	n/a	n/a	n/a	n/a	n/a	n/a	n/a
0	1	12	image	229.36023600003682	0.7552259666302064	image	house	house_07.jpg	n/a	n/a	n/a	1	n/a
0	1	12	word	230.11546196666703	0.5318988999933936	word	Haus_german	n/a	n/a	n/a	n/a	1	n/a
0	1	12	possible_button_press	231.8143956999993	0.0	response	n/a	n/a	[]	m	m	1	1
0	1	12	fix_cross_after_trial	231.83063919999404	0.8000953666671933	fixation cross	n/a	n/a	n/a	n/a	n/a	n/a	n/a
0	1	13	image	232.6390051000053	0.7605466666903169	image	dog	dog_39.jpg	n/a	n/a	n/a	1	n/a
0	1	13	word	233.39955176669562	0.5013549999566749	word	Hund_german	n/a	n/a	n/a	n/a	1	n/a
0	1	13	possible_button_press	235.10093710001092	0.0	response	n/a	n/a	[]	m	m	1	1
0	1	13	fix_cross_after_trial	235.11694600002375	1.2012652666346924	fixation cross	n/a	n/a	n/a	n/a	n/a	n/a	n/a
0	1	14	image	236.34468620002735	0.7552921666686245	image	hand	hand_18.jpg	n/a	n/a	n/a	1	n/a
0	1	14	word	237.09997836669598	0.4862814999651164	word	Hand_german	n/a	n/a	n/a	n/a	1	n/a
0	1	14	possible_button_press	238.7966296999948	0.0	response	n/a	n/a	[]	m	m	1	1
0	1	14	fix_cross_after_trial	238.81255309999688	0.8655230666666114	fixation cross	n/a	n/a	n/a	n/a	n/a	n/a	n/a
0	1	15	image	239.6891905000084	0.7553456666685463	image	dog	dog_30.jpg	n/a	n/a	n/a	1	n/a
0	1	15	word	240.44453616667695	0.4859862999874167	word	Hund_german	n/a	n/a	n/a	n/a	1	n/a
0	1	15	possible_button_press	242.14883030002238	0.0	response	n/a	n/a	[]	m	m	1	1
0	1	15	fix_cross_after_trial	242.16601480002282	1.098729766676371	fixation cross	n/a	n/a	n/a	n/a	n/a	n/a	n/a
0	1	16	image	243.28259389998857	0.7679545666944989	image	hammer	hammer_07.jpg	n/a	n/a	n/a	0	n/a
0	1	16	word	244.05054846668307	0.49909260001732036	word	Hand_german	n/a	n/a	n/a	n/a	0	n/a
0	1	16	possible_button_press	245.74951689998852	0.0	response	n/a	n/a	[]	m	r	0	0
0	1	16	fix_cross_after_trial	245.76608070003567	0.8336033666312517	fixation cross	n/a	n/a	n/a	n/a	n/a	n/a	n/a
0	1	17	image	246.6461447000038	0.7521055666768746	image	chair	chair_45.jpg	n/a	n/a	n/a	1	n/a
0	1	17	word	247.39825026668066	0.5614243000163697	word	Stuhl_german	n/a	n/a	n/a	n/a	1	n/a
0	1	17	possible_button_press	249.10870209999848	0.0	response	n/a	n/a	[]	m	m	1	1
0	1	17	fix_cross_after_trial	249.1251850000117	0.897369766669982	fixation cross	n/a	n/a	n/a	n/a	n/a	n/a	n/a
0	1	18	image	250.07987110002432	0.7541409666339689	image	jacket	jacket_17.jpg	n/a	n/a	n/a	1	n/a
0	1	18	word	250.8340120666583	0.5485310000367463	word	Jacke_german	n/a	n/a	n/a	n/a	1	n/a
0	1	18	possible_button_press	252.52583840000443	0.0	response	n/a	n/a	[]	m	m	1	1
0	1	18	fix_cross_after_trial	252.5431047999882	1.2350051666765296	fixation cross	n/a	n/a	n/a	n/a	n/a	n/a	n/a
0	1	19	image	253.7914247000008	0.7509752666849465	image	chair	chair_06.jpg	n/a	n/a	n/a	1	n/a
0	1	19	word	254.54239996668574	0.5515966999810189	word	Stuhl_german	n/a	n/a	n/a	n/a	1	n/a
0	1	19	possible_button_press	256.23996570002055	0.0	response	n/a	n/a	[]	m	m	1	1
0	1	19	fix_cross_after_trial	256.2565303000156	0.9499462666610725	fixation cross	n/a	n/a	n/a	n/a	n/a	n/a	n/a
0	1	20	image	257.2214762000367	0.7511939666621856	image	flower	flower_14.jpg	n/a	n/a	n/a	1	n/a
0	1	20	word	257.9726701666989	0.9003598999697715	word	Blume_german	n/a	n/a	n/a	n/a	1	n/a
0	1	20	possible_button_press	259.6781136000063	0.0	response	n/a	n/a	[]	m	m	1	1
0	1	20	fix_cross_after_trial	259.69389350002166	0.9448993666485421	fixation cross	n/a	n/a	n/a	n/a	n/a	n/a	n/a
0	1	21	image	260.6910357000306	0.7504046666474551	image	bread	bread_48.jpg	n/a	n/a	n/a	1	n/a
0	1	21	word	261.4414403666781	0.9191705000121146	word	Brot_german	n/a	n/a	n/a	n/a	1	n/a
0	1	21	possible_button_press	263.14023469999665	0.0	response	n/a	n/a	[]	m	m	1	1
0	1	21	fix_cross_after_trial	263.159622200008	1.1277305666628763	fixation cross	n/a	n/a	n/a	n/a	n/a	n/a	n/a
0	1	22	image	264.30535949999467	0.7651231666716285	image	bicycle	bicycle_46.jpg	n/a	n/a	n/a	1	n/a
0	1	22	word	265.0704826666663	0.7002777000307105	word	Fahrrad_german	n/a	n/a	n/a	n/a	1	n/a
0	1	22	possible_button_press	266.7748457000125	0.0	response	n/a	n/a	[]	m	m	1	1
0	1	22	fix_cross_after_trial	266.7917328000185	0.9335637666556522	fixation cross	n/a	n/a	n/a	n/a	n/a	n/a	n/a
0	1	23	image	267.84159110003384	0.749464966651658	image	ball	ball_05.jpg	n/a	n/a	n/a	1	n/a
0	1	23	word	268.5910560666855	0.7827862999984063	word	Ball_german	n/a	n/a	n/a	n/a	1	n/a
0	1	23	possible_button_press	270.2899530000286	0.0	response	n/a	n/a	[]	m	m	1	1
0	1	23	fix_cross_after_trial	270.306138999993	1.1661221666765869	fixation cross	n/a	n/a	n/a	n/a	n/a	n/a	n/a
0	1	24	image	271.50685250002425	0.7615934666284829	image	jacket	jacket_35.jpg	n/a	n/a	n/a	1	n/a
0	1	24	word	272.26844596665273	0.5490387000027113	word	Jacke_german	n/a	n/a	n/a	n/a	1	n/a
0	1	24	possible_button_press	273.96755970001686	0.0	response	n/a	n/a	[]	m	m	1	1
0	1	24	fix_cross_after_trial	273.98392159998184	0.9497384667085953	fixation cross	n/a	n/a	n/a	n/a	n/a	n/a	n/a
0	1	25	image	274.9446093000006	0.7575638666787654	image	hand	hand_38.jpg	n/a	n/a	n/a	0	n/a
0	1	25	word	275.70217316667936	0.7149963999981992	word	Fahrrad_german	n/a	n/a	n/a	n/a	0	n/a
0	1	25	possible_button_press	277.39925080002286	0.0	response	n/a	n/a	[]	m	r	0	0
0	1	25	fix_cross_after_trial	277.4217260000296	1.0998159666235097	fixation cross	n/a	n/a	n/a	n/a	n/a	n/a	n/a
0	1	26	image	278.5808662000345	0.7573055666327946	image	flower	flower_40.jpg	n/a	n/a	n/a	1	n/a
0	1	26	word	279.3381717666673	0.9150418000062928	word	Blume_german	n/a	n/a	n/a	n/a	1	n/a
0	1	26	possible_button_press	281.0558272000053	0.0	response	n/a	n/a	[]	m	m	1	1
0	1	26	fix_cross_after_trial	281.08198560000164	0.9171730666460007	fixation cross	n/a	n/a	n/a	n/a	n/a	n/a	n/a
0	1	27	image	282.02147859998513	0.7634986667001158	image	house	house_34.jpg	n/a	n/a	n/a	1	n/a
0	1	27	word	282.78497726668525	0.5314398999908008	word	Haus_german	n/a	n/a	n/a	n/a	1	n/a
0	1	27	possible_button_press	284.4866764000035	0.0	response	n/a	n/a	[]	m	m	1	1
0	1	27	fix_cross_after_trial	284.50303730001906	1.2133516666401647	fixation cross	n/a	n/a	n/a	n/a	n/a	n/a	n/a
0	1	28	image	285.73149209999247	0.7535781666558705	image	dog	dog_05.jpg	n/a	n/a	n/a	1	n/a
0	1	28	word	286.48507026664834	0.4873778000473976	word	Hund_german	n/a	n/a	n/a	n/a	1	n/a
0	1	28	possible_button_press	288.18498870002804	0.0	response	n/a	n/a	[]	m	m	1	1
0	1	28	fix_cross_after_trial	288.1983740000287	1.0319833666474096	fixation cross	n/a	n/a	n/a	n/a	n/a	n/a	n/a
0	1	29	image	289.2555425000028	0.7568202666627712	image	hand	hand_10.jpg	n/a	n/a	n/a	1	n/a
0	1	29	word	290.01236276666555	0.4852616999996826	word	Hand_german	n/a	n/a	n/a	n/a	1	n/a
0	1	29	possible_button_press	291.7129087999929	0.0	response	n/a	n/a	[]	m	m	1	1
0	1	29	fix_cross_after_trial	291.7291137999855	0.9865066667009614	fixation cross	n/a	n/a	n/a	n/a	n/a	n/a	n/a
0	1	30	image	292.7409291000222	0.7549063666413076	image	flower	flower_32.jpg	n/a	n/a	n/a	1	n/a
0	1	30	word	293.4958354666635	0.8941966000129469	word	Blume_german	n/a	n/a	n/a	n/a	1	n/a
0	1	30	possible_button_press	295.1948771000025	0.0	response	n/a	n/a	[]	m	m	1	1
0	1	30	fix_cross_after_trial	295.21115630003624	1.0503490666199014	fixation cross	n/a	n/a	n/a	n/a	n/a	n/a	n/a
0	1	31	image	296.27726390003227	0.749955766663561	image	hammer	hammer_27.jpg	n/a	n/a	n/a	1	n/a
0	1	31	word	297.0272196666958	0.5162431999924593	word	Hammer_german	n/a	n/a	n/a	n/a	1	n/a
0	1	31	possible_button_press	298.730642599985	0.0	response	n/a	n/a	[]	m	m	1	1
0	1	31	fix_cross_after_trial	298.7486613999936	0.7773533666661478	fixation cross	n/a	n/a	n/a	n/a	n/a	n/a	n/a
0	1	32	image	299.5424546999857	0.7499333666676193	image	dog	dog_06.jpg	n/a	n/a	n/a	1	n/a
0	1	32	word	300.2923880666533	0.4844545000232756	word	Hund_german	n/a	n/a	n/a	n/a	1	n/a
0	1	32	possible_button_press	301.99676609999733	0.0	response	n/a	n/a	[]	m	m	1	1
0	1	32	fix_cross_after_trial	302.0137800000375	1.1148242666424721	fixation cross	n/a	n/a	n/a	n/a	n/a	n/a	n/a
0	1	33	image	303.1601377000334	0.7652230666174091	image	flower	flower_04.jpg	n/a	n/a	n/a	1	n/a
0	1	33	word	303.9253607666508	0.9036731000524014	word	Blume_german	n/a	n/a	n/a	n/a	1	n/a
0	1	33	possible_button_press	305.6408402000088	0.0	response	n/a	n/a	[]	m	m	1	1
0	1	33	fix_cross_after_trial	305.6573979000095	0.9173557666401848	fixation cross	n/a	n/a	n/a	n/a	n/a	n/a	n/a
0	1	34	image	306.6304864999838	0.7599653666877657	image	ball	ball_11.jpg	n/a	n/a	n/a	1	n/a
0	1	34	word	307.3904518666716	0.7830093000084162	word	Ball_german	n/a	n/a	n/a	n/a	1	n/a
0	1	34	possible_button_press	309.0786254000268	0.0	response	n/a	n/a	[]	m	m	1	1
0	1	34	fix_cross_after_trial	309.0940408000024	0.8337855666798077	fixation cross	n/a	n/a	n/a	n/a	n/a	n/a	n/a
0	1	35	image	309.945237500011	0.7610407666691117	image	jacket	jacket_11.jpg	n/a	n/a	n/a	1	n/a
0	1	35	word	310.7062782666801	0.5506904000067152	word	Jacke_german	n/a	n/a	n/a	n/a	1	n/a
0	1	35	possible_button_press	312.40758669999195	0.0	response	n/a	n/a	[]	m	m	1	1
0	1	35	fix_cross_after_trial	312.42601500003366	0.9626537666229069	fixation cross	n/a	n/a	n/a	n/a	n/a	n/a	n/a
0	1	36	image	313.394388900022	0.7606334666527346	image	house	house_13.jpg	n/a	n/a	n/a	1	n/a
0	1	36	word	314.15502236667476	0.5389659000211395	word	Haus_german	n/a	n/a	n/a	n/a	1	n/a
0	1	36	possible_button_press	315.85521270002937	0.0	response	n/a	n/a	[]	m	m	1	1
0	1	36	fix_cross_after_trial	315.87121940002544	0.9659266666315034	fixation cross	n/a	n/a	n/a	n/a	n/a	n/a	n/a
0	1	37	image	316.84614829998463	0.7498524666918911	image	bicycle	bicycle_06.jpg	n/a	n/a	n/a	1	n/a
0	1	37	word	317.5960007666765	0.7108580999774858	word	Fahrrad_german	n/a	n/a	n/a	n/a	1	n/a
0	1	37	possible_button_press	319.3031188999885	0.0	response	n/a	n/a	[]	m	m	1	1
0	1	37	fix_cross_after_trial	319.31956800003536	1.2514806666333698	fixation cross	n/a	n/a	n/a	n/a	n/a	n/a	n/a
0	1	38	image	320.63050630001817	0.7556540666303135	image	bread	bread_15.jpg	n/a	n/a	n/a	1	n/a
0	1	38	word	321.3861603666485	0.9328231000108644	word	Brot_german	n/a	n/a	n/a	n/a	1	n/a
0	1	38	possible_button_press	323.0856571000186	0.0	response	n/a	n/a	[]	m	m	1	1
0	1	38	fix_cross_after_trial	323.10207650001394	1.1496695666612595	fixation cross	n/a	n/a	n/a	n/a	n/a	n/a	n/a
0	1	39	image	324.2602887999965	0.757607166659227	image	house	house_40.jpg	n/a	n/a	n/a	0	n/a
0	1	39	word	325.0178959666557	0.4874427000177093	word	Hund_german	n/a	n/a	n/a	n/a	0	n/a
0	1	39	possible_button_press	326.704031100031	0.0	response	n/a	n/a	[]	m	r	0	0
0	1	39	fix_cross_after_trial	326.7218958000303	1.06178406667118	fixation cross	n/a	n/a	n/a	n/a	n/a	n/a	n/a
0	1	40	image	327.7948318999843	0.7555252666973047	image	bicycle	bicycle_13.jpg	n/a	n/a	n/a	1	n/a
0	1	40	word	328.5503571666816	0.7005607999744825	word	Fahrrad_german	n/a	n/a	n/a	n/a	1	n/a
0	1	40	possible_button_press	330.266941400012	0.0	response	n/a	n/a	[]	m	m	1	1
0	1	40	fix_cross_after_trial	330.2833282999927	0.8158724666611761	fixation cross	n/a	n/a	n/a	n/a	n/a	n/a	n/a
0	1	41	image	331.1431135000312	0.7565503666448876	image	bread	bread_21.jpg	n/a	n/a	n/a	1	n/a
0	1	41	word	331.89966386667606	0.916082700015977	word	Brot_german	n/a	n/a	n/a	n/a	1	n/a
0	1	41	possible_button_press	333.60313210001914	0.0	response	n/a	n/a	[]	m	m	1	1
0	1	41	fix_cross_after_trial	333.61647800001083	1.1981632666468158	fixation cross	n/a	n/a	n/a	n/a	n/a	n/a	n/a
0	1	42	image	334.8254001000314	0.7621469666521534	image	hand	hand_14.jpg	n/a	n/a	n/a	1	n/a
0	1	42	word	335.58754706668356	0.48504689999390393	word	Hand_german	n/a	n/a	n/a	n/a	1	n/a
0	1	42	possible_button_press	337.2815913000377	0.0	response	n/a	n/a	[]	m	m	1	1
0	1	42	fix_cross_after_trial	337.2981509999954	0.8498722667029597	fixation cross	n/a	n/a	n/a	n/a	n/a	n/a	n/a
0	1	43	image	338.15721159998793	0.7564753667140849	image	chair	chair_23.jpg	n/a	n/a	n/a	1	n/a
0	1	43	word	338.913686966702	0.5662778999540024	word	Stuhl_german	n/a	n/a	n/a	n/a	1	n/a
0	1	43	possible_button_press	340.63002929999493	0.0	response	n/a	n/a	[]	m	m	1	1
0	1	43	fix_cross_after_trial	340.6471477000159	0.7659526666432157	fixation cross	n/a	n/a	n/a	n/a	n/a	n/a	n/a
0	1	44	image	341.4557463999954	0.7597638666668445	image	bicycle	bicycle_31.jpg	n/a	n/a	n/a	1	n/a
0	1	44	word	342.21551026666225	0.6969471999909729	word	Fahrrad_german	n/a	n/a	n/a	n/a	1	n/a
0	1	44	possible_button_press	343.9125929999864	0.0	response	n/a	n/a	[]	m	m	1	1
0	1	44	fix_cross_after_trial	343.9296805000049	1.233396566651436	fixation cross	n/a	n/a	n/a	n/a	n/a	n/a	n/a
0	1	45	image	345.17150410002796	0.7563957666318402	image	hammer	hammer_31.jpg	n/a	n/a	n/a	1	n/a
0	1	45	word	345.9278998666598	0.5166377000277862	word	Hammer_german	n/a	n/a	n/a	n/a	1	n/a
0	1	45	possible_button_press	347.6286841999972	0.0	response	n/a	n/a	[]	m	m	1	1
0	1	45	fix_cross_after_trial	347.6443957000156	1.0551843666510194	fixation cross	n/a	n/a	n/a	n/a	n/a	n/a	n/a
0	1	46	image	348.7305335000274	0.763189266672498	image	chair	chair_46.jpg	n/a	n/a	n/a	1	n/a
0	1	46	word	349.4937227666999	0.5612316999468021	word	Stuhl_german	n/a	n/a	n/a	n/a	1	n/a
0	1	46	possible_button_press	351.19610460003605	0.0	response	n/a	n/a	[]	m	m	1	1
0	1	46	fix_cross_after_trial	351.2140272000106	1.1321520666863307	fixation cross	n/a	n/a	n/a	n/a	n/a	n/a	n/a
0	1	47	image	352.376116200001	0.7556131666681267	image	ball	ball_13.jpg	n/a	n/a	n/a	0	n/a
0	1	47	word	353.1317293666691	0.7113432000041939	word	Fahrrad_german	n/a	n/a	n/a	n/a	0	n/a
0	1	47	possible_button_press	354.8259003999992	0.0	response	n/a	n/a	[]	m	r	0	0
0	1	47	fix_cross_after_trial	354.84216000000015	0.9195195667018652	fixation cross	n/a	n/a	n/a	n/a	n/a	n/a	n/a
0	1	48	image	355.79118130001007	0.750396266641701	image	bread	bread_37.jpg	n/a	n/a	n/a	1	n/a
0	1	48	word	356.54157756665177	0.9334730000118725	word	Brot_german	n/a	n/a	n/a	n/a	1	n/a
0	1	48	possible_button_press	358.23005290003493	0.0	response	n/a	n/a	[]	m	m	1	1
0	1	48	fix_cross_after_trial	358.2464555000188	0.795807566672238	fixation cross	n/a	n/a	n/a	n/a	n/a	n/a	n/a
0	1	49	image	359.08978570002364	0.7551132666451394	image	dog	dog_44.jpg	n/a	n/a	n/a	1	n/a
0	1	49	word	359.8448989666688	0.48810850002337247	word	Hund_german	n/a	n/a	n/a	n/a	1	n/a
0	1	49	possible_button_press	361.54192540002987	0.0	response	n/a	n/a	[]	m	m	1	1
0	1	49	fix_cross_after_trial	361.5568424999947	1.19963186665359	fixation cross	n/a	n/a	n/a	n/a	n/a	n/a	n/a
0	1	50	image	362.7845440999954	0.7546191666663162	image	jacket	jacket_44.jpg	n/a	n/a	n/a	1	n/a
0	1	50	word	363.5391632666617	0.5499873000080697	word	Jacke_german	n/a	n/a	n/a	n/a	1	n/a
0	1	50	possible_button_press	365.25536970002577	0.0	response	n/a	n/a	[]	m	m	1	1
0	1	50	fix_cross_after_trial	365.271775900037	1.0208561666115656	fixation cross	n/a	n/a	n/a	n/a	n/a	n/a	n/a
0	1	50	break_instruction	366.2923848000355	15.008632766668825	break	n/a	n/a	n/a	n/a	n/a	n/a	n/a
0	2	51	image	390.6861232999945	0.7615873666984498	image	flower	flower_27.jpg	n/a	n/a	n/a	1	n/a
0	2	51	word	391.44771066669296	0.8912713999743573	word	Blume_german	n/a	n/a	n/a	n/a	1	n/a
0	2	51	possible_button_press	393.1499103999813	0.0	response	n/a	n/a	[]	m	m	1	1
0	2	51	fix_cross_after_trial	393.16368800000055	1.0563437666899063	fixation cross	n/a	n/a	n/a	n/a	n/a	n/a	n/a
0	2	52	image	394.23864980001235	0.7625025666823149	image	chair	chair_21.jpg	n/a	n/a	n/a	1	n/a
0	2	52	word	395.00115236669467	0.5614647999755107	word	Stuhl_german	n/a	n/a	n/a	n/a	1	n/a
0	2	52	possible_button_press	396.71324780001305	0.0	response	n/a	n/a	[]	m	m	1	1
0	2	52	fix_cross_after_trial	396.7296276999987	1.2034248666643634	fixation cross	n/a	n/a	n/a	n/a	n/a	n/a	n/a
0	2	53	image	397.96414330002153	0.7643880666621499	image	hand	hand_05.jpg	n/a	n/a	n/a	1	n/a
0	2	53	word	398.7285313666837	0.492690599989146	word	Hand_german	n/a	n/a	n/a	n/a	1	n/a
0	2	53	possible_button_press	400.4319149000221	0.0	response	n/a	n/a	[]	m	m	1	1
0	2	53	fix_cross_after_trial	400.44524949998595	0.8824306667122528	fixation cross	n/a	n/a	n/a	n/a	n/a	n/a	n/a
0	2	54	image	401.3460562999826	0.7530428667125761	image	dog	dog_06.jpg	n/a	n/a	n/a	1	n/a
0	2	54	word	402.09909916669517	0.4817834999994375	word	Hund_german	n/a	n/a	n/a	n/a	1	n/a
0	2	54	possible_button_press	403.81407969997963	0.0	response	n/a	n/a	[]	m	m	1	1
0	2	54	fix_cross_after_trial	403.83049840002786	0.9842039666293658	fixation cross	n/a	n/a	n/a	n/a	n/a	n/a	n/a
0	2	55	image	404.8266946999938	0.7534065666879997	image	hammer	hammer_31.jpg	n/a	n/a	n/a	1	n/a
0	2	55	word	405.5801012666818	0.5161068000015803	word	Hammer_german	n/a	n/a	n/a	n/a	1	n/a
0	2	55	possible_button_press	407.27600339998025	0.0	response	n/a	n/a	[]	m	m	1	1
0	2	55	fix_cross_after_trial	407.29195470002014	0.8430189666726164	fixation cross	n/a	n/a	n/a	n/a	n/a	n/a	n/a
0	2	56	image	408.2133526999969	0.7622652666798331	image	ball	ball_11.jpg	n/a	n/a	n/a	1	n/a
0	2	56	word	408.97561796667674	0.7684066999936476	word	Ball_german	n/a	n/a	n/a	n/a	1	n/a
0	2	56	possible_button_press	410.6801954000257	0.0	response	n/a	n/a	[]	m	m	1	1
0	2	56	fix_cross_after_trial	410.69626160000917	0.9311743666805796	fixation cross	n/a	n/a	n/a	n/a	n/a	n/a	n/a
0	2	57	image	411.6537035999936	0.7575393666668333	image	hammer	hammer_34.jpg	n/a	n/a	n/a	1	n/a
0	2	57	word	412.41124296666044	0.5162884999881499	word	Hammer_german	n/a	n/a	n/a	n/a	1	n/a
0	2	57	possible_button_press	414.11071019998053	0.0	response	n/a	n/a	[]	m	m	1	1
0	2	57	fix_cross_after_trial	414.12745909998193	1.1623274667110763	fixation cross	n/a	n/a	n/a	n/a	n/a	n/a	n/a
0	2	58	image	415.3214876999846	0.7523413666679062	image	bicycle	bicycle_45.jpg	n/a	n/a	n/a	0	n/a
0	2	58	word	416.0738290666525	0.482086900039576	word	Hand_german	n/a	n/a	n/a	n/a	0	n/a
0	2	58	possible_button_press	417.78916610003216	0.0	response	n/a	n/a	[]	m	r	0	0
0	2	58	fix_cross_after_trial	417.8053180000279	0.9862350666701332	fixation cross	n/a	n/a	n/a	n/a	n/a	n/a	n/a
0	2	59	image	418.83075530000497	0.7628790666969962	image	bread	bread_12.jpg	n/a	n/a	n/a	1	n/a
0	2	59	word	419.59363436670196	0.9162087999866344	word	Brot_german	n/a	n/a	n/a	n/a	1	n/a
0	2	59	possible_button_press	421.29223590000765	0.0	response	n/a	n/a	[]	m	m	1	1
0	2	59	fix_cross_after_trial	421.311060899985	0.8637608666942924	fixation cross	n/a	n/a	n/a	n/a	n/a	n/a	n/a
0	2	60	image	422.18638790003024	0.7558319666461557	image	hammer	hammer_27.jpg	n/a	n/a	n/a	1	n/a
0	2	60	word	422.9422198666764	0.5158868000144139	word	Hammer_german	n/a	n/a	n/a	n/a	1	n/a
0	2	60	possible_button_press	424.65549279999686	0.0	response	n/a	n/a	[]	m	m	1	1
0	2	60	fix_cross_after_trial	424.6713739000261	0.8815541666738227	fixation cross	n/a	n/a	n/a	n/a	n/a	n/a	n/a
0	2	61	image	425.5601580000366	0.7500463666549422	image	bicycle	bicycle_46.jpg	n/a	n/a	n/a	1	n/a
0	2	61	word	426.31020436669155	0.7098773999605328	word	Fahrrad_german	n/a	n/a	n/a	n/a	1	n/a
0	2	61	possible_button_press	428.0090469000279	0.0	response	n/a	n/a	[]	m	m	1	1
0	2	61	fix_cross_after_trial	428.0244437000365	1.2323623666345611	fixation cross	n/a	n/a	n/a	n/a	n/a	n/a	n/a
0	2	62	image	429.3192432000069	0.7543299666760959	image	jacket	jacket_44.jpg	n/a	n/a	n/a	0	n/a
0	2	62	word	430.073573166683	0.5667336999904364	word	Stuhl_german	n/a	n/a	n/a	n/a	0	n/a
0	2	62	possible_button_press	431.78873610001756	0.0	response	n/a	n/a	[]	m	r	0	0
0	2	62	fix_cross_after_trial	431.8049608999863	0.81281326670819	fixation cross	n/a	n/a	n/a	n/a	n/a	n/a	n/a
0	2	63	image	432.63255179999396	0.7514403666757516	image	house	house_07.jpg	n/a	n/a	n/a	1	n/a
0	2	63	word	433.3839921666697	0.5335746000055224	word	Haus_german	n/a	n/a	n/a	n/a	1	n/a
0	2	63	possible_button_press	435.08418040000834	0.0	response	n/a	n/a	[]	m	m	1	1
0	2	63	fix_cross_after_trial	435.10138150001876	0.8817299666736744	fixation cross	n/a	n/a	n/a	n/a	n/a	n/a	n/a
0	2	64	image	436.01912700000685	0.7639030666944109	image	ball	ball_45.jpg	n/a	n/a	n/a	1	n/a
0	2	64	word	436.78303006670126	0.7730741999694146	word	Ball_german	n/a	n/a	n/a	n/a	1	n/a
0	2	64	possible_button_press	438.48331879999023	0.0	response	n/a	n/a	[]	m	m	1	1
0	2	64	fix_cross_after_trial	438.5026758000022	0.863186466686102	fixation cross	n/a	n/a	n/a	n/a	n/a	n/a	n/a
0	2	65	image	439.3974383000168	0.755137866657833	image	bread	bread_37.jpg	n/a	n/a	n/a	1	n/a
0	2	65	word	440.15257616667463	0.9299241999979131	word	Brot_german	n/a	n/a	n/a	n/a	1	n/a
0	2	65	possible_button_press	441.8650306999916	0.0	response	n/a	n/a	[]	m	m	1	1
0	2	65	fix_cross_after_trial	441.8806715999963	1.1833847666896418	fixation cross	n/a	n/a	n/a	n/a	n/a	n/a	n/a
0	2	66	image	443.0698524999898	0.7606594666760884	image	dog	dog_30.jpg	n/a	n/a	n/a	1	n/a
0	2	66	word	443.8305119666659	0.4834007000317797	word	Hund_german	n/a	n/a	n/a	n/a	1	n/a
0	2	66	possible_button_press	445.53065840003546	0.0	response	n/a	n/a	[]	m	m	1	1
0	2	66	fix_cross_after_trial	445.5469056000002	1.0214683666747533	fixation cross	n/a	n/a	n/a	n/a	n/a	n/a	n/a
0	2	67	image	446.5831867000088	0.7521004666380122	image	house	house_13.jpg	n/a	n/a	n/a	1	n/a
0	2	67	word	447.3352871666468	0.5305551000055857	word	Haus_german	n/a	n/a	n/a	n/a	1	n/a
0	2	67	possible_button_press	449.03335069998866	0.0	response	n/a	n/a	[]	m	m	1	1
0	2	67	fix_cross_after_trial	449.0496012000367	0.963994566646079	fixation cross	n/a	n/a	n/a	n/a	n/a	n/a	n/a
0	2	68	image	450.01920199999586	0.7590543666776739	image	jacket	jacket_27.jpg	n/a	n/a	n/a	1	n/a
0	2	68	word	450.77825636667353	0.5344352999818511	word	Jacke_german	n/a	n/a	n/a	n/a	1	n/a
0	2	68	possible_button_press	452.4946658000117	0.0	response	n/a	n/a	[]	m	m	1	1
0	2	68	fix_cross_after_trial	452.51185110001825	1.1497512666430794	fixation cross	n/a	n/a	n/a	n/a	n/a	n/a	n/a
0	2	69	image	453.68624790001195	0.7590317666802093	image	hand	hand_36.jpg	n/a	n/a	n/a	1	n/a
0	2	69	word	454.44527966669216	0.4918220000108704	word	Hand_german	n/a	n/a	n/a	n/a	1	n/a
0	2	69	possible_button_press	456.1478898000205	0.0	response	n/a	n/a	[]	m	m	1	1
0	2	69	fix_cross_after_trial	456.1645504999906	1.1825175666638188	fixation cross	n/a	n/a	n/a	n/a	n/a	n/a	n/a
0	2	70	image	457.35842850001063	0.7519485666455239	image	dog	dog_39.jpg	n/a	n/a	n/a	1	n/a
0	2	70	word	458.11037706665616	0.48238470003707334	word	Hund_german	n/a	n/a	n/a	n/a	1	n/a
0	2	70	possible_button_press	459.82625009998446	0.0	response	n/a	n/a	[]	m	m	1	1
0	2	70	fix_cross_after_trial	459.8423491999856	1.1828714666810356	fixation cross	n/a	n/a	n/a	n/a	n/a	n/a	n/a
0	2	71	image	461.0573241999955	0.7522027666602753	image	chair	chair_46.jpg	n/a	n/a	n/a	1	n/a
0	2	71	word	461.80952696665577	0.556235900032334	word	Stuhl_german	n/a	n/a	n/a	n/a	1	n/a
0	2	71	possible_button_press	463.5137514999951	0.0	response	n/a	n/a	[]	m	m	1	1
0	2	71	fix_cross_after_trial	463.5290080999839	0.8503962666766256	fixation cross	n/a	n/a	n/a	n/a	n/a	n/a	n/a
0	2	72	image	464.40607080003247	0.7549418666205838	image	flower	flower_32.jpg	n/a	n/a	n/a	1	n/a
0	2	72	word	465.16101266665305	0.8900730000459589	word	Blume_german	n/a	n/a	n/a	n/a	1	n/a
0	2	72	possible_button_press	466.8738265000284	0.0	response	n/a	n/a	[]	m	m	1	1
0	2	72	fix_cross_after_trial	466.8905388999847	1.1032835667176641	fixation cross	n/a	n/a	n/a	n/a	n/a	n/a	n/a
0	2	73	image	468.0251799999969	0.7644347666685007	image	bread	bread_48.jpg	n/a	n/a	n/a	1	n/a
0	2	73	word	468.7896147666654	0.9162319999886677	word	Brot_german	n/a	n/a	n/a	n/a	1	n/a
0	2	73	possible_button_press	470.4893189999857	0.0	response	n/a	n/a	[]	m	m	1	1
0	2	73	fix_cross_after_trial	470.50631329999305	0.9028756666850768	fixation cross	n/a	n/a	n/a	n/a	n/a	n/a	n/a
0	2	74	image	471.42178460001014	0.7543035666496962	image	chair	chair_27.jpg	n/a	n/a	n/a	1	n/a
0	2	74	word	472.17608816665984	0.5597354000201449	word	Stuhl_german	n/a	n/a	n/a	n/a	1	n/a
0	2	74	possible_button_press	473.8920416000183	0.0	response	n/a	n/a	[]	m	m	1	1
0	2	74	fix_cross_after_trial	473.9083055999945	1.082994066706533	fixation cross	n/a	n/a	n/a	n/a	n/a	n/a	n/a
0	2	75	image	475.00327899999684	0.7644334666586019	image	bicycle	bicycle_06.jpg	n/a	n/a	n/a	1	n/a
0	2	75	word	475.76771246665544	0.7067271000123583	word	Fahrrad_german	n/a	n/a	n/a	n/a	1	n/a
0	2	75	possible_button_press	477.47590389999095	0.0	response	n/a	n/a	[]	m	m	1	1
0	2	75	fix_cross_after_trial	477.49069270002656	1.2523649666729852	fixation cross	n/a	n/a	n/a	n/a	n/a	n/a	n/a
0	2	76	image	478.76944599999115	0.7554764666749634	image	hammer	hammer_14.jpg	n/a	n/a	n/a	1	n/a
0	2	76	word	479.5249224666661	0.516784799983725	word	Hammer_german	n/a	n/a	n/a	n/a	1	n/a
0	2	76	possible_button_press	481.22528630000306	0.0	response	n/a	n/a	[]	m	m	1	1
0	2	76	fix_cross_after_trial	481.2413335000165	1.1978763666741088	fixation cross	n/a	n/a	n/a	n/a	n/a	n/a	n/a
0	2	77	image	482.5201167000341	0.7521484666542619	image	bread	bread_15.jpg	n/a	n/a	n/a	1	n/a
0	2	77	word	483.2722651666884	0.9162063999683596	word	Brot_german	n/a	n/a	n/a	n/a	1	n/a
0	2	77	possible_button_press	484.9851995999925	0.0	response	n/a	n/a	[]	m	m	1	1
0	2	77	fix_cross_after_trial	485.0014548000181	0.7867121666824914	fixation cross	n/a	n/a	n/a	n/a	n/a	n/a	n/a
0	2	78	image	485.830391000025	0.7575422666307077	image	flower	flower_47.jpg	n/a	n/a	n/a	1	n/a
0	2	78	word	486.5879332666557	0.8962855000281706	word	Blume_german	n/a	n/a	n/a	n/a	1	n/a
0	2	78	possible_button_press	488.2732033000211	0.0	response	n/a	n/a	[]	m	m	1	1
0	2	78	fix_cross_after_trial	488.2892783000134	1.2138973666626498	fixation cross	n/a	n/a	n/a	n/a	n/a	n/a	n/a
0	2	79	image	489.5214073000243	0.7495664666678294	image	jacket	jacket_11.jpg	n/a	n/a	n/a	1	n/a
0	2	79	word	490.2709737666921	0.5489335999591276	word	Jacke_german	n/a	n/a	n/a	n/a	1	n/a
0	2	79	possible_button_press	491.9863389999955	0.0	response	n/a	n/a	[]	m	m	1	1
0	2	79	fix_cross_after_trial	492.00278819998493	0.8179420667040631	fixation cross	n/a	n/a	n/a	n/a	n/a	n/a	n/a
0	2	80	image	492.94172750000143	0.7586098666690759	image	ball	ball_07.jpg	n/a	n/a	n/a	0	n/a
0	2	80	word	493.7003373666705	0.4840633000130765	word	Hund_german	n/a	n/a	n/a	n/a	0	n/a
0	2	80	possible_button_press	495.3986128999968	0.0	response	n/a	n/a	[]	m	r	0	0
0	2	80	fix_cross_after_trial	495.41459220001707	1.2198953666413672	fixation cross	n/a	n/a	n/a	n/a	n/a	n/a	n/a
0	2	81	image	496.6549270999967	0.7641925666869156	image	chair	chair_23.jpg	n/a	n/a	n/a	1	n/a
0	2	81	word	497.4191196666836	0.5650287999887951	word	Stuhl_german	n/a	n/a	n/a	n/a	1	n/a
0	2	81	possible_button_press	499.13536960002966	0.0	response	n/a	n/a	[]	m	m	1	1
0	2	81	fix_cross_after_trial	499.1517249000026	0.8823637666685045	fixation cross	n/a	n/a	n/a	n/a	n/a	n/a	n/a
0	2	82	image	500.0843604999827	0.7490303667184435	image	flower	flower_40.jpg	n/a	n/a	n/a	1	n/a
0	2	82	word	500.83339086670117	0.9009395999601111	word	Blume_german	n/a	n/a	n/a	n/a	1	n/a
0	2	82	possible_button_press	502.54971880000085	0.0	response	n/a	n/a	[]	m	m	1	1
0	2	82	fix_cross_after_trial	502.56758440000704	1.1439120666511826	fixation cross	n/a	n/a	n/a	n/a	n/a	n/a	n/a
0	2	83	image	503.7315556000103	0.7499390666528143	image	hand	hand_18.jpg	n/a	n/a	n/a	0	n/a
0	2	83	word	504.48149466666314	0.5468261000351049	word	Haus_german	n/a	n/a	n/a	n/a	0	n/a
0	2	83	possible_button_press	506.1807587000076	0.0	response	n/a	n/a	[]	m	r	0	0
0	2	83	fix_cross_after_trial	506.1970664000255	1.23389486666224	fixation cross	n/a	n/a	n/a	n/a	n/a	n/a	n/a
0	2	84	image	507.44699020002736	0.7518056666633584	image	bicycle	bicycle_31.jpg	n/a	n/a	n/a	1	n/a
0	2	84	word	508.1987958666907	0.7166550999972969	word	Fahrrad_german	n/a	n/a	n/a	n/a	1	n/a
0	2	84	possible_button_press	509.89752930001123	0.0	response	n/a	n/a	[]	m	m	1	1
0	2	84	fix_cross_after_trial	509.91371100000106	0.7841582666771956	fixation cross	n/a	n/a	n/a	n/a	n/a	n/a	n/a
0	2	85	image	510.7194168000133	0.7618309666906953	image	hand	hand_14.jpg	n/a	n/a	n/a	1	n/a
0	2	85	word	511.481247766704	0.4923762999824248	word	Hand_german	n/a	n/a	n/a	n/a	1	n/a
0	2	85	possible_button_press	513.1760642000008	0.0	response	n/a	n/a	[]	m	m	1	1
0	2	85	fix_cross_after_trial	513.1921067000367	1.05042946665003	fixation cross	n/a	n/a	n/a	n/a	n/a	n/a	n/a
0	2	86	image	514.2669495000155	0.757989966663672	image	jacket	jacket_17.jpg	n/a	n/a	n/a	1	n/a
0	2	86	word	515.0249394666791	0.5329789000097662	word	Jacke_german	n/a	n/a	n/a	n/a	1	n/a
0	2	86	possible_button_press	516.7296692000236	0.0	response	n/a	n/a	[]	m	m	1	1
0	2	86	fix_cross_after_trial	516.7458226000308	0.8833341666652359	fixation cross	n/a	n/a	n/a	n/a	n/a	n/a	n/a
0	2	87	image	517.6618680999964	0.7504479666861243	image	house	house_17.jpg	n/a	n/a	n/a	1	n/a
0	2	87	word	518.4123160666825	0.548912099970039	word	Haus_german	n/a	n/a	n/a	n/a	1	n/a
0	2	87	possible_button_press	520.1274888000335	0.0	response	n/a	n/a	[]	m	m	1	1
0	2	87	fix_cross_after_trial	520.1437710000318	1.033141266616667	fixation cross	n/a	n/a	n/a	n/a	n/a	n/a	n/a
0	2	88	image	521.2408847000333	0.7653701666315555	image	chair	chair_45.jpg	n/a	n/a	n/a	1	n/a
0	2	88	word	522.0062548666649	0.5543840000173077	word	Stuhl_german	n/a	n/a	n/a	n/a	1	n/a
0	2	88	possible_button_press	523.70619669999	0.0	response	n/a	n/a	[]	m	m	1	1
0	2	88	fix_cross_after_trial	523.7225414999994	1.2211804666478656	fixation cross	n/a	n/a	n/a	n/a	n/a	n/a	n/a
0	2	89	image	525.0459165000357	0.7629396666345656	image	ball	ball_05.jpg	n/a	n/a	n/a	1	n/a
0	2	89	word	525.8088561666702	0.7782607999979518	word	Ball_german	n/a	n/a	n/a	n/a	1	n/a
0	2	89	possible_button_press	527.4929752000025	0.0	response	n/a	n/a	[]	m	m	1	1
0	2	89	fix_cross_after_trial	527.5081927999854	0.9842051666967109	fixation cross	n/a	n/a	n/a	n/a	n/a	n/a	n/a
0	2	90	image	528.5317211000365	0.7606976666177161	image	dog	dog_32.jpg	n/a	n/a	n/a	1	n/a
0	2	90	word	529.2924187666542	0.48195040004793555	word	Hund_german	n/a	n/a	n/a	n/a	1	n/a
0	2	90	possible_button_press	530.9916392000159	0.0	response	n/a	n/a	[]	m	m	1	1
0	2	90	fix_cross_after_trial	531.0040048999945	0.984355466677016	fixation cross	n/a	n/a	n/a	n/a	n/a	n/a	n/a
0	2	91	image	532.0154830000247	0.7536458666475028	image	bread	bread_19.jpg	n/a	n/a	n/a	1	n/a
0	2	91	word	532.7691288666722	0.9163739000214264	word	Brot_german	n/a	n/a	n/a	n/a	1	n/a
0	2	91	possible_button_press	534.4729051000322	0.0	response	n/a	n/a	[]	m	m	1	1
0	2	91	fix_cross_after_trial	534.489134500036	1.1844853666300423	fixation cross	n/a	n/a	n/a	n/a	n/a	n/a	n/a
0	2	92	image	535.7051356000011	0.7503409666862808	image	bicycle	bicycle_16.jpg	n/a	n/a	n/a	1	n/a
0	2	92	word	536.4554765666874	0.7033728999667801	word	Fahrrad_german	n/a	n/a	n/a	n/a	1	n/a
0	2	92	possible_button_press	538.1398139999947	0.0	response	n/a	n/a	[]	m	m	1	1
0	2	92	fix_cross_after_trial	538.1562307000277	1.0316340666652195	fixation cross	n/a	n/a	n/a	n/a	n/a	n/a	n/a
0	2	93	image	539.2475143999909	0.7572797666691713	image	dog	dog_44.jpg	n/a	n/a	n/a	1	n/a
0	2	93	word	540.0047941666601	0.4957020999863744	word	Hund_german	n/a	n/a	n/a	n/a	1	n/a
0	2	93	possible_button_press	541.7056417000131	0.0	response	n/a	n/a	[]	m	m	1	1
0	2	93	fix_cross_after_trial	541.7177993000369	0.764837866652897	fixation cross	n/a	n/a	n/a	n/a	n/a	n/a	n/a
0	2	94	image	542.494865900022	0.7587297666507311	image	house	house_20.jpg	n/a	n/a	n/a	1	n/a
0	2	94	word	543.2535956666727	0.5379674999858253	word	Haus_german	n/a	n/a	n/a	n/a	1	n/a
0	2	94	possible_button_press	544.9545169000048	0.0	response	n/a	n/a	[]	m	m	1	1
0	2	94	fix_cross_after_trial	544.9704860000056	1.216804166677548	fixation cross	n/a	n/a	n/a	n/a	n/a	n/a	n/a
0	2	95	image	546.2167828999809	0.7533803667213306	image	flower	flower_14.jpg	n/a	n/a	n/a	1	n/a
0	2	95	word	546.9701632667022	0.8951278999447823	word	Blume_german	n/a	n/a	n/a	n/a	1	n/a
0	2	95	possible_button_press	548.6852975999936	0.0	response	n/a	n/a	[]	m	m	1	1
0	2	95	fix_cross_after_trial	548.7013445000048	0.7688107666947417	fixation cross	n/a	n/a	n/a	n/a	n/a	n/a	n/a
0	2	96	image	549.4989347000374	0.7534917666382626	image	house	house_34.jpg	n/a	n/a	n/a	0	n/a
0	2	96	word	550.2524264666756	0.535798099997919	word	Jacke_german	n/a	n/a	n/a	n/a	0	n/a
0	2	96	possible_button_press	551.9481422000099	0.0	response	n/a	n/a	[]	m	r	0	0
0	2	96	fix_cross_after_trial	551.9642766999896	1.0150854666756004	fixation cross	n/a	n/a	n/a	n/a	n/a	n/a	n/a
0	2	97	image	553.036507199984	0.7651423667014114	image	hammer	hammer_42.jpg	n/a	n/a	n/a	1	n/a
0	2	97	word	553.8016495666855	0.5163655999931507	word	Hammer_german	n/a	n/a	n/a	n/a	1	n/a
0	2	97	possible_button_press	555.5163608000148	0.0	response	n/a	n/a	[]	m	m	1	1
0	2	97	fix_cross_after_trial	555.5326279000146	1.0012953666775957	fixation cross	n/a	n/a	n/a	n/a	n/a	n/a	n/a
0	2	98	image	556.5772967999801	0.7564061667110309	image	ball	ball_28.jpg	n/a	n/a	n/a	1	n/a
0	2	98	word	557.3337029666911	0.7814466999843717	word	Ball_german	n/a	n/a	n/a	n/a	1	n/a
0	2	98	possible_button_press	559.0321317000198	0.0	response	n/a	n/a	[]	m	m	1	1
0	2	98	fix_cross_after_trial	559.0492047999869	0.7667998666913718	fixation cross	n/a	n/a	n/a	n/a	n/a	n/a	n/a
0	2	99	image	559.8469667999889	0.7510816666801929	image	hand	hand_10.jpg	n/a	n/a	n/a	1	n/a
0	2	99	word	560.5980484666691	0.49134930002037436	word	Hand_german	n/a	n/a	n/a	n/a	1	n/a
0	2	99	possible_button_press	562.2992282999912	0.0	response	n/a	n/a	[]	m	m	1	1
0	2	99	fix_cross_after_trial	562.3150279999827	1.216776866702503	fixation cross	n/a	n/a	n/a	n/a	n/a	n/a	n/a
0	2	100	image	563.5749661999871	0.755107466659183	image	jacket	jacket_35.jpg	n/a	n/a	n/a	1	n/a
0	2	100	word	564.3300736666463	0.5385625000344589	word	Jacke_german	n/a	n/a	n/a	n/a	1	n/a
0	2	100	possible_button_press	566.0149473000201	0.0	response	n/a	n/a	[]	m	m	1	1
0	2	100	fix_cross_after_trial	566.0308233000105	1.0338414666514382	fixation cross	n/a	n/a	n/a	n/a	n/a	n/a	n/a
0	2	100	break_instruction	567.0643112999969	15.008614666705625	break	n/a	n/a	n/a	n/a	n/a	n/a	n/a
0	3	101	image	584.265764700016	0.7578056666573048	image	chair	chair_14.jpg	n/a	n/a	n/a	1	n/a
0	3	101	word	585.0235703666733	0.5663541000103578	word	Stuhl_german	n/a	n/a	n/a	n/a	1	n/a
0	3	101	possible_button_press	586.7250653000083	0.0	response	n/a	n/a	[]	m	m	1	1
0	3	101	fix_cross_after_trial	586.7413821000373	0.8143898666642144	fixation cross	n/a	n/a	n/a	n/a	n/a	n/a	n/a
0	3	102	image	587.5779277000111	0.7628638666394636	image	bicycle	bicycle_06.jpg	n/a	n/a	n/a	0	n/a
0	3	102	word	588.3407915666505	0.885878800007049	word	Blume_german	n/a	n/a	n/a	n/a	0	n/a
0	3	102	possible_button_press	590.0567877999856	0.0	response	n/a	n/a	[]	m	r	0	0
0	3	102	fix_cross_after_trial	590.0723541000043	1.1823302666928157	fixation cross	n/a	n/a	n/a	n/a	n/a	n/a	n/a
0	3	103	image	591.2695834999904	0.752099166686321	image	dog	dog_30.jpg	n/a	n/a	n/a	1	n/a
0	3	103	word	592.0216826666767	0.48908420000225306	word	Hund_german	n/a	n/a	n/a	n/a	1	n/a
0	3	103	possible_button_press	593.7374316999922	0.0	response	n/a	n/a	[]	m	m	1	1
0	3	103	fix_cross_after_trial	593.7543667000136	1.2323413666492797	fixation cross	n/a	n/a	n/a	n/a	n/a	n/a	n/a
0	3	104	image	594.9990257000318	0.7558138666247487	image	jacket	jacket_27.jpg	n/a	n/a	n/a	1	n/a
0	3	104	word	595.7548395666565	0.5481247000279836	word	Jacke_german	n/a	n/a	n/a	n/a	1	n/a
0	3	104	possible_button_press	597.4545800000196	0.0	response	n/a	n/a	[]	m	m	1	1
0	3	104	fix_cross_after_trial	597.471263399988	1.132256566667138	fixation cross	n/a	n/a	n/a	n/a	n/a	n/a	n/a
0	3	105	image	598.6214399000164	0.7654873666508593	image	house	house_13.jpg	n/a	n/a	n/a	1	n/a
0	3	105	word	599.3869272666673	0.5496221000212245	word	Haus_german	n/a	n/a	n/a	n/a	1	n/a
0	3	105	possible_button_press	601.1018755999976	0.0	response	n/a	n/a	[]	m	m	1	1
0	3	105	fix_cross_after_trial	601.1181196999969	1.0318683667030655	fixation cross	n/a	n/a	n/a	n/a	n/a	n/a	n/a
0	3	106	image	602.1578216000344	0.761221966651874	image	hammer	hammer_27.jpg	n/a	n/a	n/a	1	n/a
0	3	106	word	602.9190435666862	0.5150678000063635	word	Hammer_german	n/a	n/a	n/a	n/a	1	n/a
0	3	106	possible_button_press	604.6339803999872	0.0	response	n/a	n/a	[]	m	m	1	1
0	3	106	fix_cross_after_trial	604.6504635000019	0.934614266680228	fixation cross	n/a	n/a	n/a	n/a	n/a	n/a	n/a
0	3	107	image	605.6467303999816	0.7533278666708156	image	flower	flower_40.jpg	n/a	n/a	n/a	1	n/a
0	3	107	word	606.4000582666524	0.9009029000299051	word	Blume_german	n/a	n/a	n/a	n/a	1	n/a
0	3	107	possible_button_press	608.0851031999919	0.0	response	n/a	n/a	[]	m	m	1	1
0	3	107	fix_cross_after_trial	608.1018955000327	1.1152968666322067	fixation cross	n/a	n/a	n/a	n/a	n/a	n/a	n/a
0	3	108	image	609.2604786999873	0.7566128667133398	image	bread	bread_08.jpg	n/a	n/a	n/a	1	n/a
0	3	108	word	610.0170915667006	0.9315212999936193	word	Brot_german	n/a	n/a	n/a	n/a	1	n/a
0	3	108	possible_button_press	611.7157096000155	0.0	response	n/a	n/a	[]	m	m	1	1
0	3	108	fix_cross_after_trial	611.732153000019	0.9658349666317463	fixation cross	n/a	n/a	n/a	n/a	n/a	n/a	n/a
0	3	109	image	612.7172072000103	0.7637672666498929	image	jacket	jacket_11.jpg	n/a	n/a	n/a	1	n/a
0	3	109	word	613.4809744666602	0.5497649000026286	word	Jacke_german	n/a	n/a	n/a	n/a	1	n/a
0	3	109	possible_button_press	615.1820316000376	0.0	response	n/a	n/a	[]	m	m	1	1
0	3	109	fix_cross_after_trial	615.1970868000062	1.149702966682753	fixation cross	n/a	n/a	n/a	n/a	n/a	n/a	n/a
0	3	110	image	616.3712504000287	0.7585591666322671	image	flower	flower_32.jpg	n/a	n/a	n/a	1	n/a
0	3	110	word	617.1298095666609	0.899757600040175	word	Blume_german	n/a	n/a	n/a	n/a	1	n/a
0	3	110	possible_button_press	618.8309202999808	0.0	response	n/a	n/a	[]	m	m	1	1
0	3	110	fix_cross_after_trial	618.8476575000095	1.1319008666944228	fixation cross	n/a	n/a	n/a	n/a	n/a	n/a	n/a
0	3	111	image	620.0149581999867	0.76520376670328	image	jacket	jacket_35.jpg	n/a	n/a	n/a	0	n/a
0	3	111	word	620.78016196669	0.7818327000131831	word	Ball_german	n/a	n/a	n/a	n/a	0	n/a
0	3	111	possible_button_press	622.478707500035	0.0	response	n/a	n/a	[]	m	r	0	0
0	3	111	fix_cross_after_trial	622.4947324999957	0.8500270666593224	fixation cross	n/a	n/a	n/a	n/a	n/a	n/a	n/a
0	3	112	image	623.3750673999893	0.7526466666643046	image	hand	hand_36.jpg	n/a	n/a	n/a	1	n/a
0	3	112	word	624.1277140666537	0.4908234000322409	word	Hand_german	n/a	n/a	n/a	n/a	1	n/a
0	3	112	possible_button_press	625.8452895000228	0.0	response	n/a	n/a	[]	m	m	1	1
0	3	112	fix_cross_after_trial	625.8605298000039	1.0345388666648887	fixation cross	n/a	n/a	n/a	n/a	n/a	n/a	n/a
0	3	113	image	626.980576300004	0.7628243666879371	image	ball	ball_11.jpg	n/a	n/a	n/a	1	n/a
0	3	113	word	627.743400666692	0.7696406999602914	word	Ball_german	n/a	n/a	n/a	n/a	1	n/a
0	3	113	possible_button_press	629.4433785000001	0.0	response	n/a	n/a	[]	m	m	1	1
0	3	113	fix_cross_after_trial	629.4612639999832	1.249014366713027	fixation cross	n/a	n/a	n/a	n/a	n/a	n/a	n/a
0	3	114	image	630.7572593000368	0.7526836666550025	image	bread	bread_37.jpg	n/a	n/a	n/a	1	n/a
0	3	114	word	631.5099429666918	0.9321825999650173	word	Brot_german	n/a	n/a	n/a	n/a	1	n/a
0	3	114	possible_button_press	633.2265683999867	0.0	response	n/a	n/a	[]	m	m	1	1
0	3	114	fix_cross_after_trial	633.2414824999869	0.8829914666750938	fixation cross	n/a	n/a	n/a	n/a	n/a	n/a	n/a
0	3	115	image	634.1347514999798	0.7575366667044818	image	bicycle	bicycle_46.jpg	n/a	n/a	n/a	1	n/a
0	3	115	word	634.8922881666842	0.6983796000131406	word	Fahrrad_german	n/a	n/a	n/a	n/a	1	n/a
0	3	115	possible_button_press	636.5917425000225	0.0	response	n/a	n/a	[]	m	m	1	1
0	3	115	fix_cross_after_trial	636.6069872999797	1.218393066669023	fixation cross	n/a	n/a	n/a	n/a	n/a	n/a	n/a
0	3	116	image	637.8650164999999	0.7609693666493058	image	dog	dog_32.jpg	n/a	n/a	n/a	1	n/a
0	3	116	word	638.6259858666492	0.4923362000263296	word	Hund_german	n/a	n/a	n/a	n/a	1	n/a
0	3	116	possible_button_press	640.339857599989	0.0	response	n/a	n/a	[]	m	m	1	1
0	3	116	fix_cross_after_trial	640.3557730999892	0.9831124667000495	fixation cross	n/a	n/a	n/a	n/a	n/a	n/a	n/a
0	3	117	image	641.4864328000112	0.7522956666691698	image	ball	ball_05.jpg	n/a	n/a	n/a	1	n/a
0	3	117	word	642.2387284666804	0.7833386000129394	word	Ball_german	n/a	n/a	n/a	n/a	1	n/a
0	3	117	possible_button_press	643.9549875999801	0.0	response	n/a	n/a	[]	m	m	1	1
0	3	117	fix_cross_after_trial	643.9713954000035	1.2328527666434184	fixation cross	n/a	n/a	n/a	n/a	n/a	n/a	n/a
0	3	118	image	645.2282947000349	0.7597696666528009	image	house	house_12.jpg	n/a	n/a	n/a	1	n/a
0	3	118	word	645.9880643666877	0.5386223999666981	word	Haus_german	n/a	n/a	n/a	n/a	1	n/a
0	3	118	possible_button_press	647.6722301000264	0.0	response	n/a	n/a	[]	m	m	1	1
0	3	118	fix_cross_after_trial	647.6883013999905	0.9832658667039595	fixation cross	n/a	n/a	n/a	n/a	n/a	n/a	n/a
0	3	119	image	648.6922039000201	0.7610900666370526	image	bicycle	bicycle_16.jpg	n/a	n/a	n/a	1	n/a
0	3	119	word	649.4532939666572	0.717656499997247	word	Fahrrad_german	n/a	n/a	n/a	n/a	1	n/a
0	3	119	possible_button_press	651.152929999982	0.0	response	n/a	n/a	[]	m	m	1	1
0	3	119	fix_cross_after_trial	651.1691208999837	1.0329716666640252	fixation cross	n/a	n/a	n/a	n/a	n/a	n/a	n/a
0	3	120	image	652.2458270000061	0.7561648666780911	image	bread	bread_48.jpg	n/a	n/a	n/a	1	n/a
0	3	120	word	653.0019918666842	0.9343231999664567	word	Brot_german	n/a	n/a	n/a	n/a	1	n/a
0	3	120	possible_button_press	654.7159392000176	0.0	response	n/a	n/a	[]	m	m	1	1
0	3	120	fix_cross_after_trial	654.7332517000032	1.001420666700369	fixation cross	n/a	n/a	n/a	n/a	n/a	n/a	n/a
0	3	121	image	655.7610678999918	0.757878266686248	image	flower	flower_14.jpg	n/a	n/a	n/a	1	n/a
0	3	121	word	656.518946166678	0.8922736999811605	word	Blume_german	n/a	n/a	n/a	n/a	1	n/a
0	3	121	possible_button_press	658.2174915000214	0.0	response	n/a	n/a	[]	m	m	1	1
0	3	121	fix_cross_after_trial	658.2348964000121	0.7833385666638151	fixation cross	n/a	n/a	n/a	n/a	n/a	n/a	n/a
0	3	122	image	659.1123834000318	0.7556139666160107	image	ball	ball_14.jpg	n/a	n/a	n/a	1	n/a
0	3	122	word	659.8679973666478	0.7738837000215426	word	Ball_german	n/a	n/a	n/a	n/a	1	n/a
0	3	122	possible_button_press	661.5683332000044	0.0	response	n/a	n/a	[]	m	m	1	1
0	3	122	fix_cross_after_trial	661.5843947000103	1.131328066640208	fixation cross	n/a	n/a	n/a	n/a	n/a	n/a	n/a
0	3	123	image	662.7333868999849	0.7615488666963302	image	house	house_07.jpg	n/a	n/a	n/a	1	n/a
0	3	123	word	663.4949357666812	0.5336867999867536	word	Haus_german	n/a	n/a	n/a	n/a	1	n/a
0	3	123	possible_button_press	665.196416300023	0.0	response	n/a	n/a	[]	m	m	1	1
0	3	123	fix_cross_after_trial	665.2113139000139	0.8532326666793324	fixation cross	n/a	n/a	n/a	n/a	n/a	n/a	n/a
0	3	124	image	666.1313351999852	0.7510197666745171	image	bread	bread_15.jpg	n/a	n/a	n/a	0	n/a
0	3	124	word	666.8823549666597	0.48993640003027394	word	Hand_german	n/a	n/a	n/a	n/a	0	n/a
0	3	124	possible_button_press	668.5986921000294	0.0	response	n/a	n/a	[]	m	r	0	0
0	3	124	fix_cross_after_trial	668.6151671999833	1.0481486666869841	fixation cross	n/a	n/a	n/a	n/a	n/a	n/a	n/a
0	3	125	image	669.716640300001	0.7634074666459583	image	chair	chair_45.jpg	n/a	n/a	n/a	1	n/a
0	3	125	word	670.480047766647	0.5710381000535563	word	Stuhl_german	n/a	n/a	n/a	n/a	1	n/a
0	3	125	possible_button_press	672.181112500024	0.0	response	n/a	n/a	[]	m	m	1	1
0	3	125	fix_cross_after_trial	672.1974136999925	0.9987849666542843	fixation cross	n/a	n/a	n/a	n/a	n/a	n/a	n/a
0	3	126	image	673.255050399981	0.7584575666735418	image	hand	hand_05.jpg	n/a	n/a	n/a	1	n/a
0	3	126	word	674.0135079666545	0.4875700999982655	word	Hand_german	n/a	n/a	n/a	n/a	1	n/a
0	3	126	possible_button_press	675.7272218000144	0.0	response	n/a	n/a	[]	m	m	1	1
0	3	126	fix_cross_after_trial	675.7408541000332	1.154732266619476	fixation cross	n/a	n/a	n/a	n/a	n/a	n/a	n/a
0	3	127	image	676.911560699984	0.749473866719427	image	chair	chair_23.jpg	n/a	n/a	n/a	1	n/a
0	3	127	word	677.6610345667034	0.56224589998601	word	Stuhl_german	n/a	n/a	n/a	n/a	1	n/a
0	3	127	possible_button_press	679.3459215000039	0.0	response	n/a	n/a	[]	m	m	1	1
0	3	127	fix_cross_after_trial	679.3619534000172	1.0312743666620463	fixation cross	n/a	n/a	n/a	n/a	n/a	n/a	n/a
0	3	128	image	680.4071354999905	0.7525969666933179	image	dog	dog_11.jpg	n/a	n/a	n/a	1	n/a
0	3	128	word	681.1597324666839	0.4879746999940835	word	Hund_german	n/a	n/a	n/a	n/a	1	n/a
0	3	128	possible_button_press	682.8607587000006	0.0	response	n/a	n/a	[]	m	m	1	1
0	3	128	fix_cross_after_trial	682.8770936999936	0.8999015666815922	fixation cross	n/a	n/a	n/a	n/a	n/a	n/a	n/a
0	3	129	image	683.810219499981	0.765120466709277	image	flower	flower_27.jpg	n/a	n/a	n/a	1	n/a
0	3	129	word	684.5753399666903	0.8891546999802813	word	Blume_german	n/a	n/a	n/a	n/a	1	n/a
0	3	129	possible_button_press	686.2751294000191	0.0	response	n/a	n/a	[]	m	m	1	1
0	3	129	fix_cross_after_trial	686.2915041000233	1.1329263666450515	fixation cross	n/a	n/a	n/a	n/a	n/a	n/a	n/a
0	3	130	image	687.4522865000181	0.7552823666521817	image	hand	hand_10.jpg	n/a	n/a	n/a	1	n/a
0	3	130	word	688.2075688666703	0.4861273000133224	word	Hand_german	n/a	n/a	n/a	n/a	1	n/a
0	3	130	possible_button_press	689.9089993999805	0.0	response	n/a	n/a	[]	m	m	1	1
0	3	130	fix_cross_after_trial	689.9238419000176	1.100880666639796	fixation cross	n/a	n/a	n/a	n/a	n/a	n/a	n/a
0	3	131	image	691.1240913000074	0.7504641666930638	image	dog	dog_44.jpg	n/a	n/a	n/a	1	n/a
0	3	131	word	691.8745554667005	0.4951815999811515	word	Hund_german	n/a	n/a	n/a	n/a	1	n/a
0	3	131	possible_button_press	693.5911306000198	0.0	response	n/a	n/a	[]	m	m	1	1
0	3	131	fix_cross_after_trial	693.607454299985	1.1316048667106315	fixation cross	n/a	n/a	n/a	n/a	n/a	n/a	n/a
0	3	132	image	694.7812995000277	0.75857836666205	image	jacket	jacket_17.jpg	n/a	n/a	n/a	1	n/a
0	3	132	word	695.5398778666897	0.5351175999967381	word	Jacke_german	n/a	n/a	n/a	n/a	1	n/a
0	3	132	possible_button_press	697.2384404999902	0.0	response	n/a	n/a	[]	m	m	1	1
0	3	132	fix_cross_after_trial	697.2545905000297	1.2329057666395329	fixation cross	n/a	n/a	n/a	n/a	n/a	n/a	n/a
0	3	133	image	698.5118419000064	0.759000166672422	image	hammer	hammer_14.jpg	n/a	n/a	n/a	1	n/a
0	3	133	word	699.2708420666788	0.5177906000171788	word	Hammer_german	n/a	n/a	n/a	n/a	1	n/a
0	3	133	possible_button_press	700.9706854000106	0.0	response	n/a	n/a	[]	m	m	1	1
0	3	133	fix_cross_after_trial	700.9880339000374	0.883116866640421	fixation cross	n/a	n/a	n/a	n/a	n/a	n/a	n/a
0	3	134	image	701.9321808000095	0.7556850666917398	image	ball	ball_45.jpg	n/a	n/a	n/a	0	n/a
0	3	134	word	702.6878658667013	0.5484757999656722	word	Haus_german	n/a	n/a	n/a	n/a	0	n/a
0	3	134	possible_button_press	704.4025722999941	0.0	response	n/a	n/a	[]	m	r	0	0
0	3	134	fix_cross_after_trial	704.4190137999831	0.8847407666655727	fixation cross	n/a	n/a	n/a	n/a	n/a	n/a	n/a
0	3	135	image	705.3264896000037	0.758798266648455	image	bicycle	bicycle_31.jpg	n/a	n/a	n/a	1	n/a
0	3	135	word	706.0852878666522	0.7175012000370771	word	Fahrrad_german	n/a	n/a	n/a	n/a	1	n/a
0	3	135	possible_button_press	707.7697251000209	0.0	response	n/a	n/a	[]	m	m	1	1
0	3	135	fix_cross_after_trial	707.7846824000007	0.816606966666086	fixation cross	n/a	n/a	n/a	n/a	n/a	n/a	n/a
0	3	136	image	708.6162720000139	0.7513216666450262	image	jacket	jacket_03.jpg	n/a	n/a	n/a	1	n/a
0	3	136	word	709.3675936666589	0.5511223000357859	word	Jacke_german	n/a	n/a	n/a	n/a	1	n/a
0	3	136	possible_button_press	711.0674429000355	0.0	response	n/a	n/a	[]	m	m	1	1
0	3	136	fix_cross_after_trial	711.0849252000335	1.0332002666584685	fixation cross	n/a	n/a	n/a	n/a	n/a	n/a	n/a
0	3	137	image	712.1405682000332	0.7613390666704163	image	hammer	hammer_31.jpg	n/a	n/a	n/a	1	n/a
0	3	137	word	712.9019072667036	0.5163912999560125	word	Hammer_german	n/a	n/a	n/a	n/a	1	n/a
0	3	137	possible_button_press	714.6009178999811	0.0	response	n/a	n/a	[]	m	m	1	1
0	3	137	fix_cross_after_trial	714.6161032000091	1.0994248666722797	fixation cross	n/a	n/a	n/a	n/a	n/a	n/a	n/a
0	3	138	image	715.7512587999809	0.7619174667090647	image	chair	chair_46.jpg	n/a	n/a	n/a	1	n/a
0	3	138	word	716.5131762666899	0.5674141999916174	word	Stuhl_german	n/a	n/a	n/a	n/a	1	n/a
0	3	138	possible_button_press	718.2151299000252	0.0	response	n/a	n/a	[]	m	m	1	1
0	3	138	fix_cross_after_trial	718.2313274000189	1.151093766679196	fixation cross	n/a	n/a	n/a	n/a	n/a	n/a	n/a
0	3	139	image	719.4390620000195	0.7598459666517101	image	hammer	hammer_26.jpg	n/a	n/a	n/a	1	n/a
0	3	139	word	720.1989079666712	0.5164834000170231	word	Hammer_german	n/a	n/a	n/a	n/a	1	n/a
0	3	139	possible_button_press	721.915708000015	0.0	response	n/a	n/a	[]	m	m	1	1
0	3	139	fix_cross_after_trial	721.9317681000102	0.7663603666626386	fixation cross	n/a	n/a	n/a	n/a	n/a	n/a	n/a
0	3	140	image	722.7297322000377	0.7540851666165054	image	hand	hand_14.jpg	n/a	n/a	n/a	1	n/a
0	3	140	word	723.4838173666542	0.48894100001780316	word	Hand_german	n/a	n/a	n/a	n/a	1	n/a
0	3	140	possible_button_press	725.1920974000241	0.0	response	n/a	n/a	[]	m	m	1	1
0	3	140	fix_cross_after_trial	725.2085346999811	0.7997938666997015	fixation cross	n/a	n/a	n/a	n/a	n/a	n/a	n/a
0	3	141	image	726.0132270000177	0.7503239666732497	image	chair	chair_21.jpg	n/a	n/a	n/a	1	n/a
0	3	141	word	726.7635509666909	0.5699372999952175	word	Stuhl_german	n/a	n/a	n/a	n/a	1	n/a
0	3	141	possible_button_press	728.4743276999798	0.0	response	n/a	n/a	[]	m	m	1	1
0	3	141	fix_cross_after_trial	728.490733899991	0.8550617666953713	fixation cross	n/a	n/a	n/a	n/a	n/a	n/a	n/a
0	3	142	image	729.3595677000121	0.7514090666702486	image	dog	dog_39.jpg	n/a	n/a	n/a	1	n/a
0	3	142	word	730.1109767666824	0.4840338000212796	word	Hund_german	n/a	n/a	n/a	n/a	1	n/a
0	3	142	possible_button_press	731.795798200008	0.0	response	n/a	n/a	[]	m	m	1	1
0	3	142	fix_cross_after_trial	731.8118850000319	1.1497062666496731	fixation cross	n/a	n/a	n/a	n/a	n/a	n/a	n/a
0	3	143	image	732.9892611000105	0.7539308666639499	image	house	house_17.jpg	n/a	n/a	n/a	0	n/a
0	3	143	word	733.7431919666744	0.5181139999767765	word	Hammer_german	n/a	n/a	n/a	n/a	0	n/a
0	3	143	possible_button_press	735.4395269000088	0.0	response	n/a	n/a	[]	m	r	0	0
0	3	143	fix_cross_after_trial	735.4560319000157	1.2505325666318186	fixation cross	n/a	n/a	n/a	n/a	n/a	n/a	n/a
0	3	144	image	736.7167891000281	0.7546292666268073	image	bicycle	bicycle_25.jpg	n/a	n/a	n/a	1	n/a
0	3	144	word	737.4714183666549	0.7011575000360608	word	Fahrrad_german	n/a	n/a	n/a	n/a	1	n/a
0	3	144	possible_button_press	739.1765825999901	0.0	response	n/a	n/a	[]	m	m	1	1
0	3	144	fix_cross_after_trial	739.1916240000282	1.1342426666562915	fixation cross	n/a	n/a	n/a	n/a	n/a	n/a	n/a
0	3	145	image	740.3599386999849	0.7644100667132534	image	flower	flower_24.jpg	n/a	n/a	n/a	1	n/a
0	3	145	word	741.1243487666982	0.8895632999483496	word	Blume_german	n/a	n/a	n/a	n/a	1	n/a
0	3	145	possible_button_press	742.840881799988	0.0	response	n/a	n/a	[]	m	m	1	1
0	3	145	fix_cross_after_trial	742.85718609998	1.0293967666841581	fixation cross	n/a	n/a	n/a	n/a	n/a	n/a	n/a
0	3	146	image	743.8914239000296	0.7612311666637197	image	house	house_20.jpg	n/a	n/a	n/a	1	n/a
0	3	146	word	744.6526550666933	0.5494244999717921	word	Haus_german	n/a	n/a	n/a	n/a	1	n/a
0	3	146	possible_button_press	746.3534831000143	0.0	response	n/a	n/a	[]	m	m	1	1
0	3	146	fix_cross_after_trial	746.369139300019	1.1530101666614883	fixation cross	n/a	n/a	n/a	n/a	n/a	n/a	n/a
0	3	147	image	747.5343646000256	0.754188466646383	image	ball	ball_28.jpg	n/a	n/a	n/a	1	n/a
0	3	147	word	748.288553066672	0.7731982999830507	word	Ball_german	n/a	n/a	n/a	n/a	1	n/a
0	3	147	possible_button_press	750.004143099999	0.0	response	n/a	n/a	[]	m	m	1	1
0	3	147	fix_cross_after_trial	750.0213896000059	1.0682909666832074	fixation cross	n/a	n/a	n/a	n/a	n/a	n/a	n/a
0	3	148	image	751.1297371999826	0.7541645666972272	image	hammer	hammer_42.jpg	n/a	n/a	n/a	1	n/a
0	3	148	word	751.8839017666799	0.5160885999794118	word	Hammer_german	n/a	n/a	n/a	n/a	1	n/a
0	3	148	possible_button_press	753.5998024999863	0.0	response	n/a	n/a	[]	m	m	1	1
0	3	148	fix_cross_after_trial	753.6162353000254	0.8000863666568421	fixation cross	n/a	n/a	n/a	n/a	n/a	n/a	n/a
0	3	149	image	754.4600719999871	0.7567922666823961	image	bread	bread_12.jpg	n/a	n/a	n/a	1	n/a
0	3	149	word	755.2168642666695	0.9224861999973655	word	Brot_german	n/a	n/a	n/a	n/a	1	n/a
0	3	149	possible_button_press	756.9042841999908	0.0	response	n/a	n/a	[]	m	m	1	1
0	3	149	fix_cross_after_trial	756.920517200022	1.0151963666469328	fixation cross	n/a	n/a	n/a	n/a	n/a	n/a	n/a
0	3	150	image	757.994177000015	0.7595549666477837	image	hand	hand_46.jpg	n/a	n/a	n/a	1	n/a
0	3	150	word	758.7537319666628	0.4994478999869898	word	Hand_german	n/a	n/a	n/a	n/a	1	n/a
0	3	150	possible_button_press	760.4684696000186	0.0	response	n/a	n/a	[]	m	m	1	1
0	3	150	fix_cross_after_trial	760.484879399999	0.9996074666889854	fixation cross	n/a	n/a	n/a	n/a	n/a	n/a	n/a
0	3	150	break_instruction	761.484501900035	15.01190076664011	break	n/a	n/a	n/a	n/a	n/a	n/a	n/a
0	4	151	image	806.8649526000372	0.7514724666291386	image	jacket	jacket_17.jpg	n/a	n/a	n/a	1	n/a
0	4	151	word	807.6164250666664	0.5327235999866389	word	Jacke_german	n/a	n/a	n/a	n/a	1	n/a
0	4	151	possible_button_press	809.3212333000265	0.0	response	n/a	n/a	[]	m	m	1	1
0	4	151	fix_cross_after_trial	809.3337933000294	0.7860074666716628	fixation cross	n/a	n/a	n/a	n/a	n/a	n/a	n/a
0	4	152	image	810.14840429998	0.7537145667049572	image	hammer	hammer_36.jpg	n/a	n/a	n/a	1	n/a
0	4	152	word	810.902118866685	0.5222429999848828	word	Hammer_german	n/a	n/a	n/a	n/a	1	n/a
0	4	152	possible_button_press	812.6020298000076	0.0	response	n/a	n/a	[]	m	m	1	1
0	4	152	fix_cross_after_trial	812.6182753000176	1.146038566661673	fixation cross	n/a	n/a	n/a	n/a	n/a	n/a	n/a
0	4	153	image	813.7904355000355	0.7570424666666895	image	bread	bread_13.jpg	n/a	n/a	n/a	1	n/a
0	4	153	word	814.5474779667022	0.9159378999611363	word	Brot_german	n/a	n/a	n/a	n/a	1	n/a
0	4	153	possible_button_press	816.247237899981	0.0	response	n/a	n/a	[]	m	m	1	1
0	4	153	fix_cross_after_trial	816.2631795000052	0.8169258666496262	fixation cross	n/a	n/a	n/a	n/a	n/a	n/a	n/a
0	4	154	image	817.1018192000338	0.7544594666144349	image	dog	dog_32.jpg	n/a	n/a	n/a	1	n/a
0	4	154	word	817.8562786666482	0.4996883000130765	word	Hund_german	n/a	n/a	n/a	n/a	1	n/a
0	4	154	possible_button_press	819.5685017000069	0.0	response	n/a	n/a	[]	m	m	1	1
0	4	154	fix_cross_after_trial	819.5844733000267	0.9144174666764684	fixation cross	n/a	n/a	n/a	n/a	n/a	n/a	n/a
0	4	155	image	820.5312433000072	0.752297266681353	image	hammer	hammer_14.jpg	n/a	n/a	n/a	1	n/a
0	4	155	word	821.2835405666885	0.5150660999934189	word	Hammer_german	n/a	n/a	n/a	n/a	1	n/a
0	4	155	possible_button_press	822.9837910000351	0.0	response	n/a	n/a	[]	m	m	1	1
0	4	155	fix_cross_after_trial	822.9988968999824	1.1629998667087875	fixation cross	n/a	n/a	n/a	n/a	n/a	n/a	n/a
0	4	156	image	824.1755589999957	0.7573109666739128	image	chair	chair_23.jpg	n/a	n/a	n/a	1	n/a
0	4	156	word	824.9328699666696	0.5672822999767959	word	Stuhl_german	n/a	n/a	n/a	n/a	1	n/a
0	4	156	possible_button_press	826.6217060000054	0.0	response	n/a	n/a	[]	m	m	1	1
0	4	156	fix_cross_after_trial	826.6396776000038	1.2430498666983567	fixation cross	n/a	n/a	n/a	n/a	n/a	n/a	n/a
0	4	157	image	827.9105275000329	0.7531996666259602	image	bicycle	bicycle_31.jpg	n/a	n/a	n/a	0	n/a
0	4	157	word	828.6637271666589	0.55300100002205	word	Haus_german	n/a	n/a	n/a	n/a	0	n/a
0	4	157	possible_button_press	830.3647083999822	0.0	response	n/a	n/a	[]	m	r	0	0
0	4	157	fix_cross_after_trial	830.3809384999913	0.9493413667116783	fixation cross	n/a	n/a	n/a	n/a	n/a	n/a	n/a
0	4	158	image	831.345785100013	0.7667435666701294	image	ball	ball_28.jpg	n/a	n/a	n/a	1	n/a
0	4	158	word	832.1125286666831	0.7839250999968499	word	Ball_german	n/a	n/a	n/a	n/a	1	n/a
0	4	158	possible_button_press	833.8089334000251	0.0	response	n/a	n/a	[]	m	m	1	1
0	4	158	fix_cross_after_trial	833.8249140999978	1.1338458666616589	fixation cross	n/a	n/a	n/a	n/a	n/a	n/a	n/a
0	4	159	image	835.003094899992	0.754226666704426	image	hand	hand_05.jpg	n/a	n/a	n/a	1	n/a
0	4	159	word	835.7573215666964	0.4828791999607347	word	Hand_german	n/a	n/a	n/a	n/a	1	n/a
0	4	159	possible_button_press	837.4441615000251	0.0	response	n/a	n/a	[]	m	m	1	1
0	4	159	fix_cross_after_trial	837.4604497000109	1.2329981666446201	fixation cross	n/a	n/a	n/a	n/a	n/a	n/a	n/a
0	4	160	image	838.7124082000228	0.7493753666678913	image	dog	dog_03.jpg	n/a	n/a	n/a	1	n/a
0	4	160	word	839.4617835666907	0.49094339995644987	word	Hund_german	n/a	n/a	n/a	n/a	1	n/a
0	4	160	possible_button_press	841.1726740000304	0.0	response	n/a	n/a	[]	m	m	1	1
0	4	160	fix_cross_after_trial	841.1932635999983	1.0623907666924879	fixation cross	n/a	n/a	n/a	n/a	n/a	n/a	n/a
0	4	161	image	842.2697167000151	0.7527286666484088	image	chair	chair_14.jpg	n/a	n/a	n/a	1	n/a
0	4	161	word	843.0224453666635	0.5664949000347406	word	Stuhl_german	n/a	n/a	n/a	n/a	1	n/a
0	4	161	possible_button_press	844.7377632000134	0.0	response	n/a	n/a	[]	m	m	1	1
0	4	161	fix_cross_after_trial	844.754107500019	1.1336439666376918	fixation cross	n/a	n/a	n/a	n/a	n/a	n/a	n/a
0	4	162	image	845.9349635000108	0.7595082666414328	image	bread	bread_08.jpg	n/a	n/a	n/a	1	n/a
0	4	162	word	846.6944717666522	0.9297430000151508	word	Brot_german	n/a	n/a	n/a	n/a	1	n/a
0	4	162	possible_button_press	848.4308398999856	0.0	response	n/a	n/a	[]	m	m	1	1
0	4	162	fix_cross_after_trial	848.4458965000231	0.8957050666251689	fixation cross	n/a	n/a	n/a	n/a	n/a	n/a	n/a
0	4	163	image	849.3731287000119	0.7558671666813552	image	flower	flower_27.jpg	n/a	n/a	n/a	1	n/a
0	4	163	word	850.1289958666932	0.8957370999851264	word	Blume_german	n/a	n/a	n/a	n/a	1	n/a
0	4	163	possible_button_press	851.8412947999896	0.0	response	n/a	n/a	[]	m	m	1	1
0	4	163	fix_cross_after_trial	851.8690797000309	1.2420754666711673	fixation cross	n/a	n/a	n/a	n/a	n/a	n/a	n/a
0	4	164	image	853.1484303000034	0.7531310666856825	image	hand	hand_14.jpg	n/a	n/a	n/a	1	n/a
0	4	164	word	853.9015613666891	0.4853061999892816	word	Hand_german	n/a	n/a	n/a	n/a	1	n/a
0	4	164	possible_button_press	855.5939493000042	0.0	response	n/a	n/a	[]	m	m	1	1
0	4	164	fix_cross_after_trial	855.6057638000348	1.1724261666570328	fixation cross	n/a	n/a	n/a	n/a	n/a	n/a	n/a
0	4	165	image	856.8255430000136	0.7693402666520797	image	bicycle	bicycle_03.jpg	n/a	n/a	n/a	1	n/a
0	4	165	word	857.5948832666656	0.7131602999870665	word	Fahrrad_german	n/a	n/a	n/a	n/a	1	n/a
0	4	165	possible_button_press	859.3054509999929	0.0	response	n/a	n/a	[]	m	m	1	1
0	4	165	fix_cross_after_trial	859.3233506000252	1.0119889666714244	fixation cross	n/a	n/a	n/a	n/a	n/a	n/a	n/a
0	4	166	image	860.4925602999865	0.7574561666735917	image	ball	ball_14.jpg	n/a	n/a	n/a	1	n/a
0	4	166	word	861.2500164666601	0.7752668000175618	word	Ball_german	n/a	n/a	n/a	n/a	1	n/a
0	4	166	possible_button_press	862.9388525999966	0.0	response	n/a	n/a	[]	m	m	1	1
0	4	166	fix_cross_after_trial	862.9545393000008	0.8828812666508838	fixation cross	n/a	n/a	n/a	n/a	n/a	n/a	n/a
0	4	167	image	863.8810965000303	0.751349366623117	image	flower	flower_32.jpg	n/a	n/a	n/a	1	n/a
0	4	167	word	864.6324458666534	0.8934302999987267	word	Blume_german	n/a	n/a	n/a	n/a	1	n/a
0	4	167	possible_button_press	866.3199973999872	0.0	response	n/a	n/a	[]	m	m	1	1
0	4	167	fix_cross_after_trial	866.3354926999891	1.183059966661176	fixation cross	n/a	n/a	n/a	n/a	n/a	n/a	n/a
0	4	168	image	867.572024699999	0.7631354666702919	image	chair	chair_45.jpg	n/a	n/a	n/a	0	n/a
0	4	168	word	868.3351601666693	0.48304070002632216	word	Hund_german	n/a	n/a	n/a	n/a	0	n/a
0	4	168	possible_button_press	870.0467086000135	0.0	response	n/a	n/a	[]	m	r	0	0
0	4	168	fix_cross_after_trial	870.0629694000236	1.182848566623079	fixation cross	n/a	n/a	n/a	n/a	n/a	n/a	n/a
0	4	169	image	871.2541794999852	0.758926366692549	image	house	house_20.jpg	n/a	n/a	n/a	1	n/a
0	4	169	word	872.0131058666777	0.532915799994953	word	Haus_german	n/a	n/a	n/a	n/a	1	n/a
0	4	169	possible_button_press	873.7291680999915	0.0	response	n/a	n/a	[]	m	m	1	1
0	4	169	fix_cross_after_trial	873.7461807000218	0.9860075666258581	fixation cross	n/a	n/a	n/a	n/a	n/a	n/a	n/a
0	4	170	image	874.7562274000375	0.7601983666575052	image	flower	flower_24.jpg	n/a	n/a	n/a	1	n/a
0	4	170	word	875.516425766695	0.9043579999706708	word	Blume_german	n/a	n/a	n/a	n/a	1	n/a
0	4	170	possible_button_press	877.2325660000206	0.0	response	n/a	n/a	[]	m	m	1	1
0	4	170	fix_cross_after_trial	877.2489819999901	0.9499662666969471	fixation cross	n/a	n/a	n/a	n/a	n/a	n/a	n/a
0	4	171	image	878.2208558000275	0.7597948666700631	image	bicycle	bicycle_16.jpg	n/a	n/a	n/a	1	n/a
0	4	171	word	878.9806506666976	0.7131247999495827	word	Fahrrad_german	n/a	n/a	n/a	n/a	1	n/a
0	4	171	possible_button_press	880.6790935000172	0.0	response	n/a	n/a	[]	m	m	1	1
0	4	171	fix_cross_after_trial	880.6966642999905	1.0798957666886508	fixation cross	n/a	n/a	n/a	n/a	n/a	n/a	n/a
0	4	172	image	881.7861237000325	0.756958166665072	image	jacket	jacket_27.jpg	n/a	n/a	n/a	1	n/a
0	4	172	word	882.5430818666975	0.5391588999773376	word	Jacke_german	n/a	n/a	n/a	n/a	1	n/a
0	4	172	possible_button_press	884.2313027000055	0.0	response	n/a	n/a	[]	m	m	1	1
0	4	172	fix_cross_after_trial	884.2482242999831	1.2378437666959599	fixation cross	n/a	n/a	n/a	n/a	n/a	n/a	n/a
0	4	173	image	885.501680699992	0.7610795666735157	image	house	house_16.jpg	n/a	n/a	n/a	1	n/a
0	4	173	word	886.2627602666655	0.5337735000066459	word	Haus_german	n/a	n/a	n/a	n/a	1	n/a
0	4	173	possible_button_press	887.9745143000036	0.0	response	n/a	n/a	[]	m	m	1	1
0	4	173	fix_cross_after_trial	887.9903918000055	1.2330855666698426	fixation cross	n/a	n/a	n/a	n/a	n/a	n/a	n/a
0	4	174	image	889.2477708000224	0.7595301666335672	image	bread	bread_12.jpg	n/a	n/a	n/a	1	n/a
0	4	174	word	890.007300966656	0.9250106000108644	word	Brot_german	n/a	n/a	n/a	n/a	1	n/a
0	4	174	possible_button_press	891.7001600000076	0.0	response	n/a	n/a	[]	m	m	1	1
0	4	174	fix_cross_after_trial	891.7132637000177	0.9799543666342743	fixation cross	n/a	n/a	n/a	n/a	n/a	n/a	n/a
0	4	175	image	892.7493316000327	0.7618913666267417	image	hand	hand_46.jpg	n/a	n/a	n/a	1	n/a
0	4	175	word	893.5112229666595	0.49140679999254644	word	Hand_german	n/a	n/a	n/a	n/a	1	n/a
0	4	175	possible_button_press	895.2258016000269	0.0	response	n/a	n/a	[]	m	m	1	1
0	4	175	fix_cross_after_trial	895.2421681000269	1.1624313666291073	fixation cross	n/a	n/a	n/a	n/a	n/a	n/a	n/a
0	4	176	image	896.4894770000246	0.7554502666500866	image	ball	ball_05.jpg	n/a	n/a	n/a	0	n/a
0	4	176	word	897.2449272666747	0.5193160999915563	word	Hammer_german	n/a	n/a	n/a	n/a	0	n/a
0	4	176	possible_button_press	898.9381449000211	0.0	response	n/a	n/a	[]	m	r	0	0
0	4	176	fix_cross_after_trial	898.953798100003	1.0507332666932143	fixation cross	n/a	n/a	n/a	n/a	n/a	n/a	n/a
0	4	177	image	900.0550893000327	0.7540658666441686	image	bread	bread_48.jpg	n/a	n/a	n/a	1	n/a
0	4	177	word	900.8091551666769	0.9196340999915265	word	Brot_german	n/a	n/a	n/a	n/a	1	n/a
0	4	177	possible_button_press	902.5256112000206	0.0	response	n/a	n/a	[]	m	m	1	1
0	4	177	fix_cross_after_trial	902.5425920999842	1.0150140667140022	fixation cross	n/a	n/a	n/a	n/a	n/a	n/a	n/a
0	4	178	image	903.5955524999881	0.763023566691345	image	hand	hand_07.jpg	n/a	n/a	n/a	1	n/a
0	4	178	word	904.3585760666795	0.4946240999852307	word	Hand_german	n/a	n/a	n/a	n/a	1	n/a
0	4	178	possible_button_press	906.0530192999868	0.0	response	n/a	n/a	[]	m	m	1	1
0	4	178	fix_cross_after_trial	906.068527800031	1.059087966630841	fixation cross	n/a	n/a	n/a	n/a	n/a	n/a	n/a
0	4	179	image	907.1961345000309	0.7624941666183531	image	house	house_13.jpg	n/a	n/a	n/a	1	n/a
0	4	179	word	907.9586286666492	0.5515912999981083	word	Haus_german	n/a	n/a	n/a	n/a	1	n/a
0	4	179	possible_button_press	909.6741270000348	0.0	response	n/a	n/a	[]	m	m	1	1
0	4	179	fix_cross_after_trial	909.688089400006	1.070751766678086	fixation cross	n/a	n/a	n/a	n/a	n/a	n/a	n/a
0	4	180	image	910.7750853000325	0.7637145666560627	image	chair	chair_21.jpg	n/a	n/a	n/a	1	n/a
0	4	180	word	911.5387998666886	0.5647979999775998	word	Stuhl_german	n/a	n/a	n/a	n/a	1	n/a
0	4	180	possible_button_press	913.2370585000026	0.0	response	n/a	n/a	[]	m	m	1	1
0	4	180	fix_cross_after_trial	913.2533949000062	1.1122459666842133	fixation cross	n/a	n/a	n/a	n/a	n/a	n/a	n/a
0	4	181	image	914.372875400004	0.7606423666622959	image	bicycle	bicycle_46.jpg	n/a	n/a	n/a	1	n/a
0	4	181	word	915.1335177666663	0.7150690000271425	word	Fahrrad_german	n/a	n/a	n/a	n/a	1	n/a
0	4	181	possible_button_press	916.8493556000176	0.0	response	n/a	n/a	[]	m	m	1	1
0	4	181	fix_cross_after_trial	916.8656082000234	1.149374966629921	fixation cross	n/a	n/a	n/a	n/a	n/a	n/a	n/a
0	4	182	image	918.0558406999917	0.7637810666967653	image	hammer	hammer_26.jpg	n/a	n/a	n/a	1	n/a
0	4	182	word	918.8196217666884	0.5166338999988511	word	Hammer_german	n/a	n/a	n/a	n/a	1	n/a
0	4	182	possible_button_press	920.53480329999	0.0	response	n/a	n/a	[]	m	m	1	1
0	4	182	fix_cross_after_trial	920.5509536000318	1.0830566666593313	fixation cross	n/a	n/a	n/a	n/a	n/a	n/a	n/a
0	4	183	image	921.6737789000035	0.7600251666774511	image	dog	dog_44.jpg	n/a	n/a	n/a	1	n/a
0	4	183	word	922.433804066681	0.4834607999655418	word	Hund_german	n/a	n/a	n/a	n/a	1	n/a
0	4	183	possible_button_press	924.1301474000211	0.0	response	n/a	n/a	[]	m	m	1	1
0	4	183	fix_cross_after_trial	924.1463427999988	1.2164313666910402	fixation cross	n/a	n/a	n/a	n/a	n/a	n/a	n/a
0	4	184	image	925.3856257000007	0.759514766690927	image	flower	flower_20.jpg	n/a	n/a	n/a	1	n/a
0	4	184	word	926.1451404666916	0.8943096000002697	word	Blume_german	n/a	n/a	n/a	n/a	1	n/a
0	4	184	possible_button_press	927.8492900999845	0.0	response	n/a	n/a	[]	m	m	1	1
0	4	184	fix_cross_after_trial	927.8654303000076	1.0495123666516974	fixation cross	n/a	n/a	n/a	n/a	n/a	n/a	n/a
0	4	185	image	928.9388437999878	0.7593830666776284	image	hand	hand_36.jpg	n/a	n/a	n/a	1	n/a
0	4	185	word	929.6982268666654	0.48908339999616146	word	Hand_german	n/a	n/a	n/a	n/a	1	n/a
0	4	185	possible_button_press	931.3942984000314	0.0	response	n/a	n/a	[]	m	m	1	1
0	4	185	fix_cross_after_trial	931.4103434000281	0.816322666654969	fixation cross	n/a	n/a	n/a	n/a	n/a	n/a	n/a
0	4	186	image	932.257953900029	0.7519041666566864	image	bread	bread_37.jpg	n/a	n/a	n/a	0	n/a
0	4	186	word	933.0098580666856	0.5350772999809124	word	Jacke_german	n/a	n/a	n/a	n/a	0	n/a
0	4	186	possible_button_press	934.7097553000203	0.0	response	n/a	n/a	[]	m	r	0	0
0	4	186	fix_cross_after_trial	934.7267666999833	1.1496680667080454	fixation cross	n/a	n/a	n/a	n/a	n/a	n/a	n/a
0	4	187	image	935.8913776000263	0.7546355666747786	image	dog	dog_39.jpg	n/a	n/a	n/a	1	n/a
0	4	187	word	936.6460131667011	0.4830555999651551	word	Hund_german	n/a	n/a	n/a	n/a	1	n/a
0	4	187	possible_button_press	938.3455882000271	0.0	response	n/a	n/a	[]	m	m	1	1
0	4	187	fix_cross_after_trial	938.3619967999985	0.7664759666697591	fixation cross	n/a	n/a	n/a	n/a	n/a	n/a	n/a
0	4	188	image	939.144788799982	0.764558466679091	image	bicycle	bicycle_25.jpg	n/a	n/a	n/a	1	n/a
0	4	188	word	939.9093472666611	0.7110613000113517	word	Fahrrad_german	n/a	n/a	n/a	n/a	1	n/a
0	4	188	possible_button_press	941.6096901000128	0.0	response	n/a	n/a	[]	m	m	1	1
0	4	188	fix_cross_after_trial	941.6272601999808	0.8961881666948557	fixation cross	n/a	n/a	n/a	n/a	n/a	n/a	n/a
0	4	189	image	942.5837934000301	0.7561921666531362	image	ball	ball_11.jpg	n/a	n/a	n/a	1	n/a
0	4	189	word	943.3399855666833	0.773054699995555	word	Ball_german	n/a	n/a	n/a	n/a	1	n/a
0	4	189	possible_button_press	945.0288472999819	0.0	response	n/a	n/a	[]	m	m	1	1
0	4	189	fix_cross_after_trial	945.0442564000259	1.2153378666300796	fixation cross	n/a	n/a	n/a	n/a	n/a	n/a	n/a
0	4	190	image	946.2753024999984	0.7516306666695982	image	house	house_07.jpg	n/a	n/a	n/a	1	n/a
0	4	190	word	947.026933166668	0.5378833999857306	word	Haus_german	n/a	n/a	n/a	n/a	1	n/a
0	4	190	possible_button_press	948.7386845999863	0.0	response	n/a	n/a	[]	m	m	1	1
0	4	190	fix_cross_after_trial	948.7549294999917	0.8501261666572191	fixation cross	n/a	n/a	n/a	n/a	n/a	n/a	n/a
0	4	191	image	949.6132752000121	0.7576275666399397	image	jacket	jacket_03.jpg	n/a	n/a	n/a	1	n/a
0	4	191	word	950.3709027666521	0.5329726000200026	word	Jacke_german	n/a	n/a	n/a	n/a	1	n/a
0	4	191	possible_button_press	952.0877312999801	0.0	response	n/a	n/a	[]	m	m	1	1
0	4	191	fix_cross_after_trial	952.103714100027	0.8329608666283548	fixation cross	n/a	n/a	n/a	n/a	n/a	n/a	n/a
0	4	192	image	952.9819167000242	0.7587463666607164	image	flower	flower_40.jpg	n/a	n/a	n/a	1	n/a
0	4	192	word	953.7406630666849	0.8947285999893211	word	Blume_german	n/a	n/a	n/a	n/a	1	n/a
0	4	192	possible_button_press	955.4247474999866	0.0	response	n/a	n/a	[]	m	m	1	1
0	4	192	fix_cross_after_trial	955.4399987999932	1.1345024666554764	fixation cross	n/a	n/a	n/a	n/a	n/a	n/a	n/a
0	4	193	image	956.6269966000109	0.7602105666921943	image	ball	ball_30.jpg	n/a	n/a	n/a	1	n/a
0	4	193	word	957.3872071667031	0.7816096999449655	word	Ball_german	n/a	n/a	n/a	n/a	1	n/a
0	4	193	possible_button_press	959.1020225000102	0.0	response	n/a	n/a	[]	m	m	1	1
0	4	193	fix_cross_after_trial	959.1180805999902	1.0506121667024217	fixation cross	n/a	n/a	n/a	n/a	n/a	n/a	n/a
0	4	194	image	960.2056812000228	0.7637045666381255	image	hammer	hammer_42.jpg	n/a	n/a	n/a	1	n/a
0	4	194	word	960.9693857666609	0.5154388000373729	word	Hammer_german	n/a	n/a	n/a	n/a	1	n/a
0	4	194	possible_button_press	962.6549426999991	0.0	response	n/a	n/a	[]	m	m	1	1
0	4	194	fix_cross_after_trial	962.6723271000083	1.1330029666462451	fixation cross	n/a	n/a	n/a	n/a	n/a	n/a	n/a
0	4	195	image	963.8217379000271	0.7656412666585766	image	chair	chair_15.jpg	n/a	n/a	n/a	1	n/a
0	4	195	word	964.5873791666857	0.5627547999611124	word	Stuhl_german	n/a	n/a	n/a	n/a	1	n/a
0	4	195	possible_button_press	966.3003019000171	0.0	response	n/a	n/a	[]	m	m	1	1
0	4	195	fix_cross_after_trial	966.3164082000148	1.2333740666547328	fixation cross	n/a	n/a	n/a	n/a	n/a	n/a	n/a
0	4	196	image	967.5608164999867	0.7545335667130075	image	jacket	jacket_01.jpg	n/a	n/a	n/a	1	n/a
0	4	196	word	968.3153500666997	0.5507438999484293	word	Jacke_german	n/a	n/a	n/a	n/a	1	n/a
0	4	196	possible_button_press	970.020365000004	0.0	response	n/a	n/a	[]	m	m	1	1
0	4	196	fix_cross_after_trial	970.0365401000017	0.832026366672153	fixation cross	n/a	n/a	n/a	n/a	n/a	n/a	n/a
0	4	197	image	970.8880308000371	0.7625733666393444	image	house	house_12.jpg	n/a	n/a	n/a	1	n/a
0	4	197	word	971.6506041666764	0.5352114000124857	word	Haus_german	n/a	n/a	n/a	n/a	1	n/a
0	4	197	possible_button_press	973.3477488000062	0.0	response	n/a	n/a	[]	m	m	1	1
0	4	197	fix_cross_after_trial	973.3643530000118	0.9329242666756272	fixation cross	n/a	n/a	n/a	n/a	n/a	n/a	n/a
0	4	198	image	974.3065474000177	0.7572600666355811	image	jacket	jacket_11.jpg	n/a	n/a	n/a	0	n/a
0	4	198	word	975.0638074666533	0.5201666000066325	word	Hammer_german	n/a	n/a	n/a	n/a	0	n/a
0	4	198	possible_button_press	976.7637751000002	0.0	response	n/a	n/a	[]	m	r	0	0
0	4	198	fix_cross_after_trial	976.7800057000131	0.7864965666706212	fixation cross	n/a	n/a	n/a	n/a	n/a	n/a	n/a
0	4	199	image	977.5795860000071	0.7538441666440576	image	dog	dog_11.jpg	n/a	n/a	n/a	1	n/a
0	4	199	word	978.3334301666512	0.49270780000369996	word	Hund_german	n/a	n/a	n/a	n/a	1	n/a
0	4	199	possible_button_press	980.0339794000029	0.0	response	n/a	n/a	[]	m	m	1	1
0	4	199	fix_cross_after_trial	980.0503721000277	1.231768466652511	fixation cross	n/a	n/a	n/a	n/a	n/a	n/a	n/a
0	4	200	image	981.2954791000229	0.7660289666421249	image	hammer	hammer_31.jpg	n/a	n/a	n/a	1	n/a
0	4	200	word	982.061508066665	0.5180323999957182	word	Hammer_german	n/a	n/a	n/a	n/a	1	n/a
0	4	200	possible_button_press	983.7610281999805	0.0	response	n/a	n/a	[]	m	m	1	1
0	4	200	fix_cross_after_trial	983.7775974000106	1.1831294666665144	fixation cross	n/a	n/a	n/a	n/a	n/a	n/a	n/a
0	4	200	break_instruction	984.9603522000252	15.012131666652067	break	n/a	n/a	n/a	n/a	n/a	n/a	n/a
0	5	201	image	1005.023405999993	0.7646109666713983	image	bread	bread_16.jpg	n/a	n/a	n/a	1	n/a
0	5	201	word	1005.7880169666644	0.9174655000097118	word	Brot_german	n/a	n/a	n/a	n/a	1	n/a
0	5	201	possible_button_press	1007.4884063000209	0.0	response	n/a	n/a	[]	m	m	1	1
0	5	201	fix_cross_after_trial	1007.5039139	1.0707453666875608	fixation cross	n/a	n/a	n/a	n/a	n/a	n/a	n/a
0	5	202	image	1008.6092653999804	0.7494952667077541	image	flower	flower_32.jpg	n/a	n/a	n/a	1	n/a
0	5	202	word	1009.3587606666881	0.8920949999592267	word	Blume_german	n/a	n/a	n/a	n/a	1	n/a
0	5	202	possible_button_press	1011.0562042000238	0.0	response	n/a	n/a	[]	m	m	1	1
0	5	202	fix_cross_after_trial	1011.0724872000283	0.8631576666414276	fixation cross	n/a	n/a	n/a	n/a	n/a	n/a	n/a
0	5	203	image	1011.9908412999939	0.760802366658254	image	ball	ball_11.jpg	n/a	n/a	n/a	0	n/a
0	5	203	word	1012.7516436666522	0.9164157000486739	word	Brot_german	n/a	n/a	n/a	n/a	0	n/a
0	5	203	possible_button_press	1014.4510507000377	0.0	response	n/a	n/a	[]	m	r	0	0
0	5	203	fix_cross_after_trial	1014.4674472000333	0.8839558666261382	fixation cross	n/a	n/a	n/a	n/a	n/a	n/a	n/a
0	5	204	image	1015.3782458000351	0.755835966618406	image	dog	dog_03.jpg	n/a	n/a	n/a	1	n/a
0	5	204	word	1016.1340817666535	0.483059799997136	word	Hund_german	n/a	n/a	n/a	n/a	1	n/a
0	5	204	possible_button_press	1017.8208456999855	0.0	response	n/a	n/a	[]	m	m	1	1
0	5	204	fix_cross_after_trial	1017.8383609000011	1.1999971666994043	fixation cross	n/a	n/a	n/a	n/a	n/a	n/a	n/a
0	5	205	image	1019.0563861000119	0.7730979666850999	image	chair	chair_14.jpg	n/a	n/a	n/a	1	n/a
0	5	205	word	1019.829484066697	0.5714142000069842	word	Stuhl_german	n/a	n/a	n/a	n/a	1	n/a
0	5	205	possible_button_press	1021.5164088000311	0.0	response	n/a	n/a	[]	m	m	1	1
0	5	205	fix_cross_after_trial	1021.5321082000155	1.0878911666843578	fixation cross	n/a	n/a	n/a	n/a	n/a	n/a	n/a
0	5	206	image	1022.6390825000126	0.7627232666748114	image	jacket	jacket_32.jpg	n/a	n/a	n/a	1	n/a
0	5	206	word	1023.4018057666874	0.5507102999836206	word	Jacke_german	n/a	n/a	n/a	n/a	1	n/a
0	5	206	possible_button_press	1025.1030749999918	0.0	response	n/a	n/a	[]	m	m	1	1
0	5	206	fix_cross_after_trial	1025.1192855000263	0.918143866645778	fixation cross	n/a	n/a	n/a	n/a	n/a	n/a	n/a
0	5	207	image	1026.1240191999823	0.7617445666730873	image	hand	hand_46.jpg	n/a	n/a	n/a	1	n/a
0	5	207	word	1026.8857637666554	0.487191200023517	word	Hand_german	n/a	n/a	n/a	n/a	1	n/a
0	5	207	possible_button_press	1028.6009556000354	0.0	response	n/a	n/a	[]	m	m	1	1
0	5	207	fix_cross_after_trial	1028.6171967000118	1.166030066673784	fixation cross	n/a	n/a	n/a	n/a	n/a	n/a	n/a
0	5	208	image	1029.800657099986	0.7623927666611507	image	dog	dog_01.jpg	n/a	n/a	n/a	1	n/a
0	5	208	word	1030.5630498666471	0.4872008000384085	word	Hund_german	n/a	n/a	n/a	n/a	1	n/a
0	5	208	possible_button_press	1032.2787596000126	0.0	response	n/a	n/a	[]	m	m	1	1
0	5	208	fix_cross_after_trial	1032.2954794000252	1.2493826666652694	fixation cross	n/a	n/a	n/a	n/a	n/a	n/a	n/a
0	5	209	image	1033.5651613000082	0.7634906666391998	image	flower	flower_20.jpg	n/a	n/a	n/a	1	n/a
0	5	209	word	1034.3286519666474	0.8925935000297613	word	Blume_german	n/a	n/a	n/a	n/a	1	n/a
0	5	209	possible_button_press	1036.0150006000185	0.0	response	n/a	n/a	[]	m	m	1	1
0	5	209	fix_cross_after_trial	1036.0312303000246	1.0012503666259818	fixation cross	n/a	n/a	n/a	n/a	n/a	n/a	n/a
0	5	210	image	1037.0492625000188	0.7650085666721225	image	house	house_12.jpg	n/a	n/a	n/a	1	n/a
0	5	210	word	1037.814271066691	0.5507509000017308	word	Haus_german	n/a	n/a	n/a	n/a	1	n/a
0	5	210	possible_button_press	1039.5104237000342	0.0	response	n/a	n/a	[]	m	m	1	1
0	5	210	fix_cross_after_trial	1039.5267118000193	1.1508935666681737	fixation cross	n/a	n/a	n/a	n/a	n/a	n/a	n/a
0	5	211	image	1040.689112699998	0.7532108666530348	image	bicycle	bicycle_03.jpg	n/a	n/a	n/a	1	n/a
0	5	211	word	1041.442323566651	0.7168012000038289	word	Fahrrad_german	n/a	n/a	n/a	n/a	1	n/a
0	5	211	possible_button_press	1043.1422380000004	0.0	response	n/a	n/a	[]	m	m	1	1
0	5	211	fix_cross_after_trial	1043.161731100001	1.1334142666930802	fixation cross	n/a	n/a	n/a	n/a	n/a	n/a	n/a
0	5	212	image	1044.3075629000086	0.755745466685994	image	ball	ball_30.jpg	n/a	n/a	n/a	1	n/a
0	5	212	word	1045.0633083666946	0.7741446999716572	word	Ball_german	n/a	n/a	n/a	n/a	1	n/a
0	5	212	possible_button_press	1046.7749402000336	0.0	response	n/a	n/a	[]	m	m	1	1
0	5	212	fix_cross_after_trial	1046.790776000009	0.8014964666838296	fixation cross	n/a	n/a	n/a	n/a	n/a	n/a	n/a
0	5	213	image	1047.599173900031	0.7581609666269742	image	jacket	jacket_03.jpg	n/a	n/a	n/a	1	n/a
0	5	213	word	1048.357334866658	0.5325783000444062	word	Jacke_german	n/a	n/a	n/a	n/a	1	n/a
0	5	213	possible_button_press	1050.056887499988	0.0	response	n/a	n/a	[]	m	m	1	1
0	5	213	fix_cross_after_trial	1050.074832800019	1.119742366663786	fixation cross	n/a	n/a	n/a	n/a	n/a	n/a	n/a
0	5	214	image	1051.2083776000072	0.7511467666520275	image	ball	ball_28.jpg	n/a	n/a	n/a	1	n/a
0	5	214	word	1051.9595243666593	0.7666506000095978	word	Ball_german	n/a	n/a	n/a	n/a	1	n/a
0	5	214	possible_button_press	1053.6609323000303	0.0	response	n/a	n/a	[]	m	m	1	1
0	5	214	fix_cross_after_trial	1053.6761393999914	0.7825879667109348	fixation cross	n/a	n/a	n/a	n/a	n/a	n/a	n/a
0	5	215	image	1054.4684032000368	0.7611345666266516	image	chair	chair_21.jpg	n/a	n/a	n/a	1	n/a
0	5	215	word	1055.2295377666635	0.558393299987074	word	Stuhl_german	n/a	n/a	n/a	n/a	1	n/a
0	5	215	possible_button_press	1056.9269389000256	0.0	response	n/a	n/a	[]	m	m	1	1
0	5	215	fix_cross_after_trial	1056.9430789999897	0.997796566695115	fixation cross	n/a	n/a	n/a	n/a	n/a	n/a	n/a
0	5	216	image	1057.9707845000084	0.7549904666414022	image	flower	flower_24.jpg	n/a	n/a	n/a	1	n/a
0	5	216	word	1058.7257749666499	0.8946933000115678	word	Blume_german	n/a	n/a	n/a	n/a	1	n/a
0	5	216	possible_button_press	1060.4253433999838	0.0	response	n/a	n/a	[]	m	m	1	1
0	5	216	fix_cross_after_trial	1060.4417305000243	0.798498566673743	fixation cross	n/a	n/a	n/a	n/a	n/a	n/a	n/a
0	5	217	image	1061.30764980003	0.7502772666668989	image	hammer	hammer_42.jpg	n/a	n/a	n/a	1	n/a
0	5	217	word	1062.057927066697	0.5152385999681428	word	Hammer_german	n/a	n/a	n/a	n/a	1	n/a
0	5	217	possible_button_press	1063.7570393999922	0.0	response	n/a	n/a	[]	m	m	1	1
0	5	217	fix_cross_after_trial	1063.7733146999963	1.1621997666700281	fixation cross	n/a	n/a	n/a	n/a	n/a	n/a	n/a
0	5	218	image	1064.945492400031	0.7562396666655786	image	house	house_20.jpg	n/a	n/a	n/a	1	n/a
0	5	218	word	1065.7017320666966	0.5342614999972284	word	Haus_german	n/a	n/a	n/a	n/a	1	n/a
0	5	218	possible_button_press	1067.4018402000074	0.0	response	n/a	n/a	[]	m	m	1	1
0	5	218	fix_cross_after_trial	1067.4183411999838	1.0994861666733868	fixation cross	n/a	n/a	n/a	n/a	n/a	n/a	n/a
0	5	219	image	1068.5405479000183	0.7636413666807584	image	hammer	hammer_14.jpg	n/a	n/a	n/a	1	n/a
0	5	219	word	1069.304189266699	0.5163341999868862	word	Hammer_german	n/a	n/a	n/a	n/a	1	n/a
0	5	219	possible_button_press	1071.0039377000066	0.0	response	n/a	n/a	[]	m	m	1	1
0	5	219	fix_cross_after_trial	1071.0215971000143	1.1820172666377857	fixation cross	n/a	n/a	n/a	n/a	n/a	n/a	n/a
0	5	220	image	1072.2465315000154	0.7530439666627444	image	bread	bread_48.jpg	n/a	n/a	n/a	0	n/a
0	5	220	word	1072.9995754666782	0.8874993000063114	word	Blume_german	n/a	n/a	n/a	n/a	0	n/a
0	5	220	possible_button_press	1074.699284500035	0.0	response	n/a	n/a	[]	m	r	0	0
0	5	220	fix_cross_after_trial	1074.7154085999937	1.0167646666561723	fixation cross	n/a	n/a	n/a	n/a	n/a	n/a	n/a
0	5	221	image	1075.7573130999808	0.7626690666695595	image	bicycle	bicycle_14.jpg	n/a	n/a	n/a	1	n/a
0	5	221	word	1076.5199821666504	0.7003184000495821	word	Fahrrad_german	n/a	n/a	n/a	n/a	1	n/a
0	5	221	possible_button_press	1078.236603300029	0.0	response	n/a	n/a	[]	m	m	1	1
0	5	221	fix_cross_after_trial	1078.251476400008	1.0009951666618235	fixation cross	n/a	n/a	n/a	n/a	n/a	n/a	n/a
0	5	222	image	1079.2912140000262	0.7613557666229553	image	bread	bread_13.jpg	n/a	n/a	n/a	1	n/a
0	5	222	word	1080.0525697666492	0.9114327999996021	word	Brot_german	n/a	n/a	n/a	n/a	1	n/a
0	5	222	possible_button_press	1081.7664915000205	0.0	response	n/a	n/a	[]	m	m	1	1
0	5	222	fix_cross_after_trial	1081.7799340999918	0.883231766700419	fixation cross	n/a	n/a	n/a	n/a	n/a	n/a	n/a
0	5	223	image	1082.6807856000378	0.765255666632811	image	hand	hand_07.jpg	n/a	n/a	n/a	1	n/a
0	5	223	word	1083.4460412666706	0.48332210001535714	word	Hand_german	n/a	n/a	n/a	n/a	1	n/a
0	5	223	possible_button_press	1085.146559500019	0.0	response	n/a	n/a	[]	m	m	1	1
0	5	223	fix_cross_after_trial	1085.1624492999981	1.1197484666520268	fixation cross	n/a	n/a	n/a	n/a	n/a	n/a	n/a
0	5	224	image	1086.3000287000323	0.749667466621986	image	house	house_07.jpg	n/a	n/a	n/a	1	n/a
0	5	224	word	1087.0496961666543	0.55012309999438	word	Haus_german	n/a	n/a	n/a	n/a	1	n/a
0	5	224	possible_button_press	1088.74834250001	0.0	response	n/a	n/a	[]	m	m	1	1
0	5	224	fix_cross_after_trial	1088.7645927999984	0.9297030666532464	fixation cross	n/a	n/a	n/a	n/a	n/a	n/a	n/a
0	5	225	image	1089.712089299981	0.7651725666985385	image	hand	hand_36.jpg	n/a	n/a	n/a	1	n/a
0	5	225	word	1090.4772618666796	0.4847171999863349	word	Hand_german	n/a	n/a	n/a	n/a	1	n/a
0	5	225	possible_button_press	1092.1769668000052	0.0	response	n/a	n/a	[]	m	m	1	1
0	5	225	fix_cross_after_trial	1092.1938372000004	0.8330120666689709	fixation cross	n/a	n/a	n/a	n/a	n/a	n/a	n/a
0	5	226	image	1093.0425019999966	0.7513451667075515	image	house	house_03.jpg	n/a	n/a	n/a	1	n/a
0	5	226	word	1093.7938471667042	0.5442007999517955	word	Haus_german	n/a	n/a	n/a	n/a	1	n/a
0	5	226	possible_button_press	1095.4963494000258	0.0	response	n/a	n/a	[]	m	m	1	1
0	5	226	fix_cross_after_trial	1095.5128370000166	0.8480425666823521	fixation cross	n/a	n/a	n/a	n/a	n/a	n/a	n/a
0	5	227	image	1096.3728003000142	0.7572711666618943	image	jacket	jacket_27.jpg	n/a	n/a	n/a	1	n/a
0	5	227	word	1097.130071466676	0.5507122999988496	word	Jacke_german	n/a	n/a	n/a	n/a	1	n/a
0	5	227	possible_button_press	1098.8247544000042	0.0	response	n/a	n/a	[]	m	m	1	1
0	5	227	fix_cross_after_trial	1098.8410372000071	0.9500769666667566	fixation cross	n/a	n/a	n/a	n/a	n/a	n/a	n/a
0	5	228	image	1099.7966677999939	0.760619466662547	image	bicycle	bicycle_46.jpg	n/a	n/a	n/a	0	n/a
0	5	228	word	1100.5572872666564	0.5661289000418037	word	Stuhl_german	n/a	n/a	n/a	n/a	0	n/a
0	5	228	possible_button_press	1102.2605818000156	0.0	response	n/a	n/a	[]	m	r	0	0
0	5	228	fix_cross_after_trial	1102.2755468999967	1.1192618666721046	fixation cross	n/a	n/a	n/a	n/a	n/a	n/a	n/a
0	5	229	image	1103.4535964999814	0.757639366671583	image	hammer	hammer_26.jpg	n/a	n/a	n/a	1	n/a
0	5	229	word	1104.211235866653	0.5175592000014149	word	Hammer_german	n/a	n/a	n/a	n/a	1	n/a
0	5	229	possible_button_press	1105.9191248000134	0.0	response	n/a	n/a	[]	m	m	1	1
0	5	229	fix_cross_after_trial	1105.9297349000117	1.1924591666358992	fixation cross	n/a	n/a	n/a	n/a	n/a	n/a	n/a
0	5	230	image	1107.1436722000362	0.7612052666411273	image	flower	flower_27.jpg	n/a	n/a	n/a	1	n/a
0	5	230	word	1107.9048774666774	0.8858239999972284	word	Blume_german	n/a	n/a	n/a	n/a	1	n/a
0	5	230	possible_button_press	1109.6050151999807	0.0	response	n/a	n/a	[]	m	m	1	1
0	5	230	fix_cross_after_trial	1109.6212979999837	1.1365163666816898	fixation cross	n/a	n/a	n/a	n/a	n/a	n/a	n/a
0	5	231	image	1110.7714934999822	0.7541888667076364	image	house	house_16.jpg	n/a	n/a	n/a	1	n/a
0	5	231	word	1111.5256823666898	0.5497412999975495	word	Haus_german	n/a	n/a	n/a	n/a	1	n/a
0	5	231	possible_button_press	1113.2419070000178	0.0	response	n/a	n/a	[]	m	m	1	1
0	5	231	fix_cross_after_trial	1113.2570193000138	1.1176174666654788	fixation cross	n/a	n/a	n/a	n/a	n/a	n/a	n/a
0	5	232	image	1114.4023350999923	0.7509165667036086	image	jacket	jacket_17.jpg	n/a	n/a	n/a	1	n/a
0	5	232	word	1115.153251666696	0.5345014999620616	word	Jacke_german	n/a	n/a	n/a	n/a	1	n/a
0	5	232	possible_button_press	1116.8533836000133	0.0	response	n/a	n/a	[]	m	m	1	1
0	5	232	fix_cross_after_trial	1116.8686982000363	1.216875966642192	fixation cross	n/a	n/a	n/a	n/a	n/a	n/a	n/a
0	5	233	image	1118.0901448000222	0.7614125666480049	image	chair	chair_17.jpg	n/a	n/a	n/a	1	n/a
0	5	233	word	1118.8515573666702	0.5662319000111893	word	Stuhl_german	n/a	n/a	n/a	n/a	1	n/a
0	5	233	possible_button_press	1120.5397838000208	0.0	response	n/a	n/a	[]	m	m	1	1
0	5	233	fix_cross_after_trial	1120.5548393999925	0.7494696666874461	fixation cross	n/a	n/a	n/a	n/a	n/a	n/a	n/a
0	5	234	image	1121.3145270000095	0.7565212666561365	image	dog	dog_11.jpg	n/a	n/a	n/a	1	n/a
0	5	234	word	1122.0710482666657	0.4899604999809526	word	Hund_german	n/a	n/a	n/a	n/a	1	n/a
0	5	234	possible_button_press	1123.7854739000322	0.0	response	n/a	n/a	[]	m	m	1	1
0	5	234	fix_cross_after_trial	1123.8011468999903	1.181490066697961	fixation cross	n/a	n/a	n/a	n/a	n/a	n/a	n/a
0	5	235	image	1125.0073358999798	0.7594276666679889	image	bread	bread_12.jpg	n/a	n/a	n/a	1	n/a
0	5	235	word	1125.7667635666478	0.9160378000233322	word	Brot_german	n/a	n/a	n/a	n/a	1	n/a
0	5	235	possible_button_press	1127.4706391000072	0.0	response	n/a	n/a	[]	m	m	1	1
0	5	235	fix_cross_after_trial	1127.4858348999987	1.1665443666900046	fixation cross	n/a	n/a	n/a	n/a	n/a	n/a	n/a
0	5	236	image	1128.6712352000177	0.7656132666782014	image	hand	hand_14.jpg	n/a	n/a	n/a	1	n/a
0	5	236	word	1129.436848466696	0.48710460000438616	word	Hand_german	n/a	n/a	n/a	n/a	1	n/a
0	5	236	possible_button_press	1131.15163149999	0.0	response	n/a	n/a	[]	m	m	1	1
0	5	236	fix_cross_after_trial	1131.168135999993	0.8303306666823573	fixation cross	n/a	n/a	n/a	n/a	n/a	n/a	n/a
0	5	237	image	1132.0212157000205	0.7641399666356392	image	flower	flower_06.jpg	n/a	n/a	n/a	1	n/a
0	5	237	word	1132.7853556666562	0.8947178000234999	word	Blume_german	n/a	n/a	n/a	n/a	1	n/a
0	5	237	possible_button_press	1134.4805074000033	0.0	response	n/a	n/a	[]	m	m	1	1
0	5	237	fix_cross_after_trial	1134.4971307000378	1.1993564666520342	fixation cross	n/a	n/a	n/a	n/a	n/a	n/a	n/a
0	5	238	image	1135.7265657000244	0.7578640666363299	image	dog	dog_32.jpg	n/a	n/a	n/a	1	n/a
0	5	238	word	1136.4844297666607	0.4879089000169188	word	Hund_german	n/a	n/a	n/a	n/a	1	n/a
0	5	238	possible_button_press	1138.1992669000174	0.0	response	n/a	n/a	[]	m	m	1	1
0	5	238	fix_cross_after_trial	1138.217186200025	0.9648395666774832	fixation cross	n/a	n/a	n/a	n/a	n/a	n/a	n/a
0	5	239	image	1139.1930516000139	0.7568402666404381	image	bicycle	bicycle_16.jpg	n/a	n/a	n/a	1	n/a
0	5	239	word	1139.9498918666543	0.7114655000041239	word	Fahrrad_german	n/a	n/a	n/a	n/a	1	n/a
0	5	239	possible_button_press	1141.6618539000046	0.0	response	n/a	n/a	[]	m	m	1	1
0	5	239	fix_cross_after_trial	1141.677855100017	1.249268866671855	fixation cross	n/a	n/a	n/a	n/a	n/a	n/a	n/a
0	5	240	image	1142.9374128000345	0.7564637666257568	image	chair	chair_23.jpg	n/a	n/a	n/a	0	n/a
0	5	240	word	1143.6938765666603	0.520635700027924	word	Hammer_german	n/a	n/a	n/a	n/a	0	n/a
0	5	240	possible_button_press	1145.3976775000338	0.0	response	n/a	n/a	[]	m	r	0	0
0	5	240	fix_cross_after_trial	1145.4135713999858	1.0857887666827537	fixation cross	n/a	n/a	n/a	n/a	n/a	n/a	n/a
0	5	241	image	1146.5173319000169	0.763843766650325	image	ball	ball_25.jpg	n/a	n/a	n/a	1	n/a
0	5	241	word	1147.2811756666672	0.7767098000040278	word	Ball_german	n/a	n/a	n/a	n/a	1	n/a
0	5	241	possible_button_press	1148.9922706999932	0.0	response	n/a	n/a	[]	m	m	1	1
0	5	241	fix_cross_after_trial	1149.0090659999987	0.9658128666962966	fixation cross	n/a	n/a	n/a	n/a	n/a	n/a	n/a
0	5	242	image	1150.000282699999	0.7581163666948214	image	bread	bread_08.jpg	n/a	n/a	n/a	1	n/a
0	5	242	word	1150.7583990666938	0.9182530999532901	word	Brot_german	n/a	n/a	n/a	n/a	1	n/a
0	5	242	possible_button_press	1152.4575339999865	0.0	response	n/a	n/a	[]	m	m	1	1
0	5	242	fix_cross_after_trial	1152.4742648000247	1.0714574666383214	fixation cross	n/a	n/a	n/a	n/a	n/a	n/a	n/a
0	5	243	image	1153.5612745999824	0.749541966714105	image	chair	chair_15.jpg	n/a	n/a	n/a	1	n/a
0	5	243	word	1154.3108165666965	0.5665739999967627	word	Stuhl_german	n/a	n/a	n/a	n/a	1	n/a
0	5	243	possible_button_press	1156.010643800022	0.0	response	n/a	n/a	[]	m	m	1	1
0	5	243	fix_cross_after_trial	1156.0283857000177	1.112162766632764	fixation cross	n/a	n/a	n/a	n/a	n/a	n/a	n/a
0	5	244	image	1157.2022593999864	0.7576720666877463	image	hammer	hammer_36.jpg	n/a	n/a	n/a	1	n/a
0	5	244	word	1157.959931466674	0.5130239999853075	word	Hammer_german	n/a	n/a	n/a	n/a	1	n/a
0	5	244	possible_button_press	1159.6612061000196	0.0	response	n/a	n/a	[]	m	m	1	1
0	5	244	fix_cross_after_trial	1159.6768646999844	1.0117928666916214	fixation cross	n/a	n/a	n/a	n/a	n/a	n/a	n/a
0	5	245	image	1160.7791455999832	0.7596642666651405	image	ball	ball_14.jpg	n/a	n/a	n/a	1	n/a
0	5	245	word	1161.5388098666483	0.7792608000454493	word	Ball_german	n/a	n/a	n/a	n/a	1	n/a
0	5	245	possible_button_press	1163.2416776000173	0.0	response	n/a	n/a	[]	m	m	1	1
0	5	245	fix_cross_after_trial	1163.2580676000216	0.7830069666417785	fixation cross	n/a	n/a	n/a	n/a	n/a	n/a	n/a
0	5	246	image	1164.0752180999843	0.7496443666789219	image	hand	hand_30.jpg	n/a	n/a	n/a	1	n/a
0	5	246	word	1164.8248624666633	0.4907099999836646	word	Hand_german	n/a	n/a	n/a	n/a	1	n/a
0	5	246	possible_button_press	1166.5208347000298	0.0	response	n/a	n/a	[]	m	m	1	1
0	5	246	fix_cross_after_trial	1166.5363741000183	0.8495373666557953	fixation cross	n/a	n/a	n/a	n/a	n/a	n/a	n/a
0	5	247	image	1167.3933128000353	0.7593957666579172	image	jacket	jacket_01.jpg	n/a	n/a	n/a	1	n/a
0	5	247	word	1168.1527085666933	0.5341834999853745	word	Jacke_german	n/a	n/a	n/a	n/a	1	n/a
0	5	247	possible_button_press	1169.868858700036	0.0	response	n/a	n/a	[]	m	m	1	1
0	5	247	fix_cross_after_trial	1169.8851174000301	1.152516866630549	fixation cross	n/a	n/a	n/a	n/a	n/a	n/a	n/a
0	5	248	image	1171.094286800013	0.7622923666533552	image	hammer	hammer_28.jpg	n/a	n/a	n/a	1	n/a
0	5	248	word	1171.8565791666663	0.5149884999846108	word	Hammer_german	n/a	n/a	n/a	n/a	1	n/a
0	5	248	possible_button_press	1173.5549603999825	0.0	response	n/a	n/a	[]	m	m	1	1
0	5	248	fix_cross_after_trial	1173.571545200015	0.8007252666322984	fixation cross	n/a	n/a	n/a	n/a	n/a	n/a	n/a
0	5	249	image	1174.4004984000348	0.7503787666248627	image	dog	dog_39.jpg	n/a	n/a	n/a	0	n/a
0	5	249	word	1175.1508771666597	0.8995902999886312	word	Blume_german	n/a	n/a	n/a	n/a	0	n/a
0	5	249	possible_button_press	1176.8508599000052	0.0	response	n/a	n/a	[]	m	r	0	0
0	5	249	fix_cross_after_trial	1176.8662959000212	0.9506167666443162	fixation cross	n/a	n/a	n/a	n/a	n/a	n/a	n/a
0	5	250	image	1177.827173800033	0.7594282666143499	image	bicycle	bicycle_25.jpg	n/a	n/a	n/a	1	n/a
0	5	250	word	1178.5866020666474	0.7162673000129871	word	Fahrrad_german	n/a	n/a	n/a	n/a	1	n/a
0	5	250	possible_button_press	1180.2861106999917	0.0	response	n/a	n/a	[]	m	m	1	1
0	5	250	fix_cross_after_trial	1180.3038932000054	1.083133966665855	fixation cross	n/a	n/a	n/a	n/a	n/a	n/a	n/a
0	5	250	break_instruction	1181.3866528000217	15.006825966647966	break	n/a	n/a	n/a	n/a	n/a	n/a	n/a
0	6	251	image	1200.7749986000126	0.7510823666855231	image	dog	dog_01.jpg	n/a	n/a	n/a	1	n/a
0	6	251	word	1201.5260809666981	3.8201725999824703	word	Hund_german	n/a	n/a	n/a	n/a	1	n/a
0	6	251	possible_button_press	1201.7733241000096	0.0	response	n/a	n/a	5.087755299988203	r	m	1	0
0	6	251	fix_cross_after_trial	1201.7781106000184	2.2517122666506566	fixation cross	n/a	n/a	n/a	n/a	n/a	n/a	n/a
0	6	252	image	1204.0470940000378	0.7644752666276418	image	hammer	hammer_32.jpg	n/a	n/a	n/a	1	n/a
0	6	252	possible_button_press	1206.5278750000289	0.0	response	n/a	n/a	[]	m	m	1	1
0	6	252	fix_cross_after_trial	1206.5441387000028	1.1013371666815601	fixation cross	n/a	n/a	n/a	n/a	n/a	n/a	n/a
0	6	253	image	1207.6571380000096	0.7492459666721061	image	jacket	jacket_03.jpg	n/a	n/a	n/a	1	n/a
0	6	253	word	1208.4063839666817	0.5330971999792382	word	Jacke_german	n/a	n/a	n/a	n/a	1	n/a
0	6	253	possible_button_press	1210.1066744999844	0.0	response	n/a	n/a	[]	m	m	1	1
0	6	253	fix_cross_after_trial	1210.124878600007	0.9808409666914031	fixation cross	n/a	n/a	n/a	n/a	n/a	n/a	n/a
0	6	254	image	1211.111257200013	0.7639182666355282	image	chair	chair_21.jpg	n/a	n/a	n/a	0	n/a
0	6	254	word	1211.8751754666484	0.9171978000085801	word	Brot_german	n/a	n/a	n/a	n/a	0	n/a
0	6	254	possible_button_press	1213.575657600013	0.0	response	n/a	n/a	[]	m	r	0	0
0	6	254	fix_cross_after_trial	1213.5919533999986	1.0511837666892916	fixation cross	n/a	n/a	n/a	n/a	n/a	n/a	n/a
0	6	255	image	1214.6559384000138	0.7523295666362628	image	jacket	jacket_27.jpg	n/a	n/a	n/a	1	n/a
0	6	255	word	1215.40826796665	0.5463689000462182	word	Jacke_german	n/a	n/a	n/a	n/a	1	n/a
0	6	255	possible_button_press	1217.1210117000155	0.0	response	n/a	n/a	[]	m	m	1	1
0	6	255	fix_cross_after_trial	1217.1372211999842	0.9161674666722774	fixation cross	n/a	n/a	n/a	n/a	n/a	n/a	n/a
0	6	256	image	1218.0721146999858	0.7651771666753575	image	hammer	hammer_14.jpg	n/a	n/a	n/a	1	n/a
0	6	256	word	1218.8372918666612	0.5159777000080794	word	Hammer_german	n/a	n/a	n/a	n/a	1	n/a
0	6	256	possible_button_press	1220.5252444000216	0.0	response	n/a	n/a	[]	m	m	1	1
0	6	256	fix_cross_after_trial	1220.540983600018	1.0152477666308641	fixation cross	n/a	n/a	n/a	n/a	n/a	n/a	n/a
0	6	257	image	1221.5693674000213	0.7535014666539155	image	ball	ball_30.jpg	n/a	n/a	n/a	1	n/a
0	6	257	word	1222.3228688666752	0.7758742999867536	word	Ball_german	n/a	n/a	n/a	n/a	1	n/a
0	6	257	possible_button_press	1224.0191029999987	0.0	response	n/a	n/a	[]	m	m	1	1
0	6	257	fix_cross_after_trial	1224.035201199993	0.9663230666812979	fixation cross	n/a	n/a	n/a	n/a	n/a	n/a	n/a
0	6	258	image	1225.0323004000238	0.7555748666675299	image	hand	hand_09.jpg	n/a	n/a	n/a	1	n/a
0	6	258	word	1225.7878752666913	0.486848899978213	word	Hand_german	n/a	n/a	n/a	n/a	1	n/a
0	6	258	possible_button_press	1227.5014662999893	0.0	response	n/a	n/a	[]	m	m	1	1
0	6	258	fix_cross_after_trial	1227.5178568999982	0.9541750666724056	fixation cross	n/a	n/a	n/a	n/a	n/a	n/a	n/a
0	6	259	image	1228.4888790000114	0.7496173666479535	image	house	house_03.jpg	n/a	n/a	n/a	1	n/a
0	6	259	word	1229.2384963666593	0.5544048000010662	word	Haus_german	n/a	n/a	n/a	n/a	1	n/a
0	6	259	possible_button_press	1230.9537961999886	0.0	response	n/a	n/a	[]	m	m	1	1
0	6	259	fix_cross_after_trial	1230.9711452000192	1.0318017666616015	fixation cross	n/a	n/a	n/a	n/a	n/a	n/a	n/a
0	6	260	image	1232.0135830999934	0.7563259666824251	image	jacket	jacket_01.jpg	n/a	n/a	n/a	1	n/a
0	6	260	word	1232.7699090666758	0.5457286000018939	word	Jacke_german	n/a	n/a	n/a	n/a	1	n/a
0	6	260	possible_button_press	1234.465744599991	0.0	response	n/a	n/a	[]	m	m	1	1
0	6	260	fix_cross_after_trial	1234.4818621000159	0.9325498666769363	fixation cross	n/a	n/a	n/a	n/a	n/a	n/a	n/a
0	6	261	image	1235.4284913000301	0.7523912666404158	image	flower	flower_24.jpg	n/a	n/a	n/a	1	n/a
0	6	261	word	1236.1808825666706	0.8934039000305347	word	Blume_german	n/a	n/a	n/a	n/a	1	n/a
0	6	261	possible_button_press	1237.8705760000157	0.0	response	n/a	n/a	[]	m	m	1	1
0	6	261	fix_cross_after_trial	1237.8860004000016	1.2480433666535191	fixation cross	n/a	n/a	n/a	n/a	n/a	n/a	n/a
0	6	262	image	1239.173011499981	0.7607344667233065	image	house	house_46.jpg	n/a	n/a	n/a	1	n/a
0	6	262	word	1239.9337459667042	0.5383071999531239	word	Haus_german	n/a	n/a	n/a	n/a	1	n/a
0	6	262	possible_button_press	1241.6462710000342	0.0	response	n/a	n/a	[]	m	m	1	1
0	6	262	fix_cross_after_trial	1241.6625370000256	0.7832170666699767	fixation cross	n/a	n/a	n/a	n/a	n/a	n/a	n/a
0	6	263	image	1242.5054024999845	0.7575268666880675	image	ball	ball_14.jpg	n/a	n/a	n/a	1	n/a
0	6	263	word	1243.2629293666726	0.7684560000197962	word	Ball_german	n/a	n/a	n/a	n/a	1	n/a
0	6	263	possible_button_press	1244.9626650999999	0.0	response	n/a	n/a	[]	m	m	1	1
0	6	263	fix_cross_after_trial	1244.9788371000323	0.950021966655413	fixation cross	n/a	n/a	n/a	n/a	n/a	n/a	n/a
0	6	264	image	1245.9615595000214	0.7554518666622698	image	bread	bread_07.jpg	n/a	n/a	n/a	1	n/a
0	6	264	word	1246.7170113666837	0.9186140999663621	word	Brot_german	n/a	n/a	n/a	n/a	1	n/a
0	6	264	possible_button_press	1248.4312158999965	0.0	response	n/a	n/a	[]	m	m	1	1
0	6	264	fix_cross_after_trial	1248.447596699989	0.8794665666684978	fixation cross	n/a	n/a	n/a	n/a	n/a	n/a	n/a
0	6	265	image	1249.36913549999	0.7575195666906893	image	hand	hand_46.jpg	n/a	n/a	n/a	1	n/a
0	6	265	word	1250.1266550666808	0.48347279999870807	word	Hand_german	n/a	n/a	n/a	n/a	1	n/a
0	6	265	possible_button_press	1251.8267886000103	0.0	response	n/a	n/a	[]	m	m	1	1
