ITI.started,ITI.stopped,ITI_length,ITI_prc.started,ITI_prc.stopped,block,break_3.started,break_3.stopped,breaks_instruction.started,breaks_instruction.stopped,concept,concept_num,concept_num_word,continue_button.duration,continue_button.keys,continue_button.rt,continue_button.started,continue_button_3.duration,continue_button_3.keys,continue_button_3.rt,continue_button_3.started,continue_button_4.duration,continue_button_4.keys,continue_button_4.rt,continue_button_4.started,continue_button_6.duration,continue_button_6.keys,continue_button_6.rt,continue_button_6.started,continue_button_8.duration,continue_button_8.keys,continue_button_8.rt,continue_button_8.started,continue_button_9.duration,continue_button_9.keys,continue_button_9.rt,continue_button_9.started,continue_button_break.duration,continue_button_break.keys,continue_button_break.rt,continue_button_break.started,correct_response,date,exemplar_num,expName,expStart,expVersion,fix_cross.started,fix_cross.stopped,fix_cross_2.started,fix_cross_2.stopped,fix_cross_2_prc.started,fix_cross_2_prc.stopped,fix_cross_prc.started,frameRate,image.started,image.stopped,image_prc.started,image_prc.stopped,image_pres.started,image_pres.stopped,image_pres_prc.started,image_pres_prc.stopped,image_shown,instruction_continuebreak.started,instruction_part1.started,instruction_part2.started,instruction_part3.started,instruction_part4.started,instruction_startexp.started,instruction_startexp_2.started,instructions.started,instructions.stopped,instructions_02.started,instructions_02.stopped,instructions_03.started,instructions_03.stopped,instructions_04.started,instructions_04.stopped,instructions_startexp.started,instructions_startexp.stopped,instructions_startexp_02.started,instructions_startexp_02.stopped,is_mismatch,is_prompt,key_resp.keys,key_resp.started,key_resp_prc.keys,key_resp_prc.started,key_resp_prc.stopped,match_idx,nonmatch_pres_side,notes,participant,progress_bar_breaks.started,progress_bar_breaks.stopped,psychopyVersion,settings.started,settings.stopped,sound_pres.started,sound_pres.stopped,sound_pres_prc.started,sound_pres_prc.stopped,spoken_word.started,spoken_word.stopped,spoken_word_prc.started,spoken_word_prc.stopped,thisN,thisRepN,thisRow.t,thisTrialN,trial_in_block,trials.continue_button_break.duration,trials.continue_button_break.keys,trials.continue_button_break.rt,trials.key_resp.keys,trials.thisIndex,trials.thisN,trials.thisRepN,trials.thisTrialN,trials_practice.key_resp_prc.keys,trials_practice.thisIndex,trials_practice.thisN,trials_practice.thisRepN,trials_practice.thisTrialN,word_shown_english,word_shown_french,word_shown_german,
,,,,,,,,,,,,,,,,,,,,,,,,,,,,,,,,,,,,,,,,,,2026-07-21_15h43.31.784,,TSRlearn_localizer-concepts,2026-07-21 15h43.33.075437 +0200,,,,,,,,,60.065723919094076,,,,,,,,,,,,,,,,,,,,,,,,,,,,,,,,,,,,,,,0,,,2025.2.4,0.016062700015027076,0.016137300000991672,,,,,,,,,,,,,,,,,,,,,,,,,,,,,,
,,,,,,,,,,,,,0.18460570002207533,y,7.623826000024565,0.5278648000094108,,,,,,,,,,,,,,,,,,,,,,,,,,2026-07-21_15h43.31.784,,TSRlearn_localizer-concepts,2026-07-21 15h43.33.075437 +0200,,,,,,,,,60.065723919094076,,,,,,,,,,,0.06197679997421801,,,,,,0.04630869999527931,8.341448099992704,,,,,,,,,,,,,,,,,,,,,0,,,2025.2.4,,,,,,,,,,,,,,,,,,,,,,,,,,,,,,,,
,,,,,,,,,,,,,,,,,0.17002779996255413,y,4.114405700005591,8.841427400009707,,,,,,,,,,,,,,,,,,,,,,2026-07-21_15h43.31.784,,TSRlearn_localizer-concepts,2026-07-21 15h43.33.075437 +0200,,,,,,,,,60.065723919094076,,,,,,,,,,,,8.35735529998783,,,,,,,8.346535400021821,13.131264199968427,,,,,,,,,,,,,,,,,,,0,,,2025.2.4,,,,,,,,,,,,,,,,,,,,,,,,,,,,,,,,
,,,,,,,,,,,,,,,,,,,,,0.21477890003006905,y,7.049124300014228,13.638928800006397,,,,,,,,,,,,,,,,,,2026-07-21_15h43.31.784,,TSRlearn_localizer-concepts,2026-07-21 15h43.33.075437 +0200,,,,,,,,,60.065723919094076,,,,,,,,,,,,,13.159049400012009,,,,,,,,13.143196300021373,20.903969599981792,,,,,,,,,,,,,,,,,0,,,2025.2.4,,,,,,,,,,,,,,,,,,,,,,,,,,,,,,,,
,,,,,,,,,,,,,,,,,,,,,,,,,,,,,,,,,0.1748710999963805,y,2.7863514999626204,21.404440000012983,,,,,,2026-07-21_15h43.31.784,,TSRlearn_localizer-concepts,2026-07-21 15h43.33.075437 +0200,,,,,,,,,60.065723919094076,,,,,,,,,,,,,,20.920418399968185,,,,,,,,,20.91047180001624,24.369249399984255,,,,,,,,,,,,,,,0,,,2025.2.4,,,,,,,,,,,,,,,,,,,,,,,,,,,,,,,,
,,0.75,26.934983399987686,27.701321100001223,,,,,,,,,,,,,,,,,,,,,,,,,,,,,,,,,,,,,y,2026-07-21_15h43.31.784,,TSRlearn_localizer-concepts,2026-07-21 15h43.33.075437 +0200,,,,,,26.95247139997082,27.73231059999671,25.237806599994656,60.065723919094076,,,24.47066019999329,25.237806599994656,,,24.456786499998998,25.218914299970493,anchor.jpg,,,,,,,,,,,,,,,,,,,,,,,,None,25.237806599994656,26.75140609999653,1,right,,0,,,2025.2.4,,,,,25.231121300021186,26.934917800012045,,,25.235449666685113,25.801833099976648,0,0,2026-07-21_15:43:57.531233,0,,,,,,,,,,None,0,0,0,0,anchor,ancre,Anker,
,,0.89,30.184391600021627,31.083820200001355,,,,,,,,,,,,,,,,,,,,,,,,,,,,,,,,,,,,,r,2026-07-21_15h43.31.784,,TSRlearn_localizer-concepts,2026-07-21 15h43.33.075437 +0200,,,,,,30.200641600007657,31.125886299996637,28.486203100008424,60.065723919094076,,,27.73231059999671,28.486203100008424,,,27.72309939999832,28.46751619997667,ant.jpg,,,,,,,,,,,,,,,,,,,,,,,,None,28.486203100008424,30.00035139999818,1,left,,0,,,2025.2.4,,,,,28.479857800004538,30.18432140001096,,,28.48399396666015,29.217335199995432,1,0,2026-07-21_15:44:00.792884,1,,,,,,,,,,None,1,1,0,1,ant,fourmi,Ameise,
,,0.85,33.59967580001103,34.44958590000169,,,,,,,,,,,,,,,,,,,,,,,,,,,,,,,,,,,,,y,2026-07-21_15h43.31.784,,TSRlearn_localizer-concepts,2026-07-21 15h43.33.075437 +0200,,,,,,33.615716899978,34.48052500002086,31.88339079997968,60.065723919094076,,,31.125886299996637,31.88339079997968,,,31.116692800016608,31.867531299998518,axe.jpg,,,,,,,,,,,,,,,,,,,,,,,,None,31.88339079997968,33.38748629996553,0,left,,0,,,2025.2.4,,,,,31.87166459998116,33.59957269998267,,,31.883756966683237,32.43314520001877,2,0,2026-07-21_15:44:04.186459,2,,,,,,,,,,None,2,2,0,2,horse,cheval,Pferd,
,,1.01,36.93363619997399,37.948706900002435,,,,,,,,,,,,,,,,,,,,,,,,,,,,,,,,,,,,,y,2026-07-21_15h43.31.784,,TSRlearn_localizer-concepts,2026-07-21 15h43.33.075437 +0200,,,,,,36.94874149997486,37.981119200005196,35.23199870000826,60.065723919094076,,,34.48052500002086,35.23199870000826,,,34.47172329999739,35.21583489998011,bus.jpg,,,,,,,,,,,,,,,,,,,,,,,,None,35.23199870000826,36.73228220001329,1,right,,0,,,2025.2.4,,,,,35.22534140001517,36.93357130000368,,,35.23226726666714,35.71640189999016,3,0,2026-07-21_15:44:07.541098,3,,,,,,,,,,None,3,3,0,3,bus,bus,Bus,
,,1.04,40.44750770000974,41.497745600005146,,,,,,,,,,,,,,,,,,,,,,,,,,,,,,,,,,,,,r,2026-07-21_15h43.31.784,,TSRlearn_localizer-concepts,2026-07-21 15h43.33.075437 +0200,,,,,,40.46470449998742,41.53395329997875,38.73160649999045,60.065723919094076,,,37.981119200005196,38.73160649999045,,,37.971534900018014,38.71546859998489,ball.jpg,,,,,,,,,,,,,,,,,,,,,,,,None,38.73160649999045,40.231447600002866,0,right,,0,,,2025.2.4,,,,,38.719603699981235,40.44744499999797,,,38.73191076668833,39.36482810002053,4,0,2026-07-21_15:44:11.041692,4,,,,,,,,,,None,4,4,0,4,face,visage,Gesicht,
,,0.99,43.997852900007274,44.996816299972124,,,,,,,,,,,,,,,,,,,,,,,,,,,,,,,,,,,,,y,2026-07-21_15h43.31.784,,TSRlearn_localizer-concepts,2026-07-21 15h43.33.075437 +0200,,,,,,44.0143385999836,45.03469419997418,42.29805119999219,60.065723919094076,,,41.53395329997875,42.29805119999219,,,41.52462749998085,42.28083319996949,banana.jpg,,,,,,,,,,,,,,,,,,,,,,,,None,42.29805119999219,43.81362279999303,1,right,,0,,,2025.2.4,,,,,42.29165919998195,43.9977896999917,,,42.29733316664739,42.96435969998129,5,0,2026-07-21_15:44:14.594526,5,,,,,,,,,,None,5,5,0,5,banana,banane,Banane,
,,0.79,47.495593999978155,48.29543240001658,,,,,,,,,,,,,,,,,,,,,,,,,,,,,,,,,,,,,r,2026-07-21_15h43.31.784,,TSRlearn_localizer-concepts,2026-07-21 15h43.33.075437 +0200,,,,,,47.51208100002259,48.3323381000082,45.79552230000263,60.065723919094076,,,45.03469419997418,45.79552230000263,,,45.02556530002039,45.77907599997707,glasses.jpg,,,,,,,,,,,,,,,,,,,,,,,,None,45.79552230000263,47.294930699979886,1,left,,0,,,2025.2.4,,,,,45.78414880001219,47.49549760000082,,,45.79549306666401,46.31299880001461,6,0,2026-07-21_15:44:18.095267,6,,,,,,,,,,None,6,6,0,6,glasses,lunettes,Brille,
,,0.77,50.81119390000822,51.59383670001989,,,,,,,,,,,,,,,,,,,,,,,,,,,,,,,,,,,,,y,2026-07-21_15h43.31.784,,TSRlearn_localizer-concepts,2026-07-21 15h43.33.075437 +0200,,,,,,50.82719390001148,51.63349069998367,49.09438670001691,60.065723919094076,,,48.3323381000082,49.09438670001691,,,48.32409660000121,49.07804809999652,basket.jpg,,,,,,,,,,,,,,,,,,,,,,,,None,49.09438670001691,50.59441409999272,1,right,,0,,,2025.2.4,,,,,49.08651399996597,50.81112500000745,,,49.0945690666597,49.5776165999705,7,0,2026-07-21_15:44:21.392911,7,,,,,,,,,,None,7,7,0,7,basket,panier,Korb,
,,1.23,54.109863899997436,55.34291030000895,,,,,,,,,,,,,,,,,,,,,,,,,,,,,,,,,,,,,r,2026-07-21_15h43.31.784,,TSRlearn_localizer-concepts,2026-07-21 15h43.33.075437 +0200,,,,,,54.1262926000054,55.377518699970096,52.393969999975525,60.065723919094076,,,51.63349069998367,52.393969999975525,,,51.6243699999759,52.37720699998317,bear.jpg,,,,,,,,,,,,,,,,,,,,,,,,None,52.393969999975525,53.90958609996596,0,right,,0,,,2025.2.4,,,,,52.38532900001155,54.10980669996934,,,52.39369066665337,52.95991530001629,8,0,2026-07-21_15:44:24.694064,8,,,,,,,,,,None,8,8,0,8,milk,lait,Milch,
,,1.1,57.859515200019814,58.958356700022705,,,,,,,,,,,,,,,,,,,,,,,,,,,,,,,,,,,,,y,2026-07-21_15h43.31.784,,TSRlearn_localizer-concepts,2026-07-21 15h43.33.075437 +0200,,,,,,57.87539780000225,58.99621489999117,56.14236539998092,60.065723919094076,,,55.377518699970096,56.14236539998092,,,55.36925059999339,56.12637650000397,belt.jpg,,,,,,,,,,,,,,,,,,,,,,,,None,56.14236539998092,57.64196679997258,1,left,,0,,,2025.2.4,,,,,56.13305579998996,57.85945449996507,,,56.14283846668356,56.7252905999776,9,0,2026-07-21_15:44:28.438092,9,,,,,,,,,,None,9,9,0,9,belt,ceinture,Gürtel,
,,1.25,61.44957619998604,62.70800300000701,,,,,,,,,,,,,,,,,,,,,,,,,,,,,,,,,,,,,y,2026-07-21_15h43.31.784,,TSRlearn_localizer-concepts,2026-07-21 15h43.33.075437 +0200,,,,,,61.46498370001791,62.81914169999072,59.74760880001122,60.065723919094076,,,58.99621489999117,59.74760880001122,,,58.987285499984864,59.72974959999556,bike.jpg,,,,,,,,,,,,,,,,,,,,,,,,None,59.74760880001122,61.265254899975844,1,left,,0,,,2025.2.4,,,,,59.7326951000141,61.449491399980616,,,59.74621896667328,60.44408729998395,10,0,2026-07-21_15:44:32.056788,10,,,,,,,,,,None,10,10,0,10,bicycle,vélo,Fahrrad,
,,,,,,,,,,,,,,,,,,,,,,,,,0.16814699996029958,g,4.272339800023474,63.21418110001832,,,,,,,,,,,,,,2026-07-21_15h43.31.784,,TSRlearn_localizer-concepts,2026-07-21 15h43.33.075437 +0200,,,,,,,,,60.065723919094076,,,,,,,,,,,,,,,62.81914169999072,,,,,,,,,,62.810705100011546,67.65580519998912,,,,,,,,,,,,,0,,,2025.2.4,,,,,,,,,,,,,,,,,,,,,,,,,,,,,,,,
,,,,,,,,,,,,,,,,,,,,,,,,,,,,,0.16234759998042136,g,10.548908600001596,68.15579150000121,,,,,,,,,,2026-07-21_15h43.31.784,,TSRlearn_localizer-concepts,2026-07-21 15h43.33.075437 +0200,,,,,,,,,60.065723919094076,,,,,,,,,,,,,,,,67.67317859997274,,,,,,,,,,,67.66641609999351,78.86927869997453,,,,,,,,,,,0,,,2025.2.4,,,,,,,,,,,,,,,,,,,,,,,,,,,,,,,,
81.51777410000795,82.45860179996816,0.92,,,1,82.46567060000962,82.46572149998974,,,bread,3,3,,,,,,,,,,,,,,,,,,,,,,,,,,None,,,None,2026-07-21_15h43.31.784,19,TSRlearn_localizer-concepts,2026-07-21 15h43.33.075437 +0200,,79.81799569999566,81.53422259999206,81.53422259999206,82.50109739997424,,,,60.065723919094076,79.05526850000024,79.81799569999566,,,79.04145399999106,79.80164389999118,,,bread\bread_19.jpg,,,,,,,,,,,,,,,,,,,,0,1,None,79.81799569999566,,,,,None,,0,,,2025.2.4,,,79.8055902000051,81.51769499998773,,,79.8181489666497,80.73476680001477,,,0,0,2026-07-21_15:44:52.115842,0,1,,None,,None,0,0,0,0,,,,,,bread,Pain,Brot,
84.9412228000001,86.11877190001542,1.18,,,1,86.118859899987,86.1189075000002,,,chair,4,4,,,,,,,,,,,,,,,,,,,,,,,,,,None,,,None,2026-07-21_15h43.31.784,27,TSRlearn_localizer-concepts,2026-07-21 15h43.33.075437 +0200,,83.25077350001084,84.95427749998635,84.95427749998635,86.18219889997272,,,,60.065723919094076,82.50109739997424,83.25077350001084,,,82.48368910001591,83.23501319997013,,,chair\chair_27.jpg,,,,,,,,,,,,,,,,,,,,0,1,None,83.25077350001084,,,,,None,,0,,,2025.2.4,,,83.23930040001869,84.94114969996735,,,83.25147116667746,83.82443799998146,,,1,0,2026-07-21_15:44:55.561671,1,2,,None,,None,1,1,0,1,,,,,,chair,Chaise,Stuhl,
88.64904290001141,89.431949299993,0.78,,,1,89.43204849999165,89.43208920001052,,,flower,6,6,,,,,,,,,,,,,,,,,,,,,,,,,,None,,,None,2026-07-21_15h43.31.784,47,TSRlearn_localizer-concepts,2026-07-21 15h43.33.075437 +0200,,86.94371479999973,88.66517489997204,88.66517489997204,89.48184249998303,,,,60.065723919094076,86.18219889997272,86.94371479999973,,,86.16756739997072,86.91618100000778,,,flower\flower_47.jpg,,,,,,,,,,,,,,,,,,,,0,1,None,86.94371479999973,,,,,None,,0,,,2025.2.4,,,86.93542739999248,88.64897420001216,,,86.94919713331231,87.83348520001164,,,2,0,2026-07-21_15:44:59.242772,2,3,,None,,None,2,2,0,2,,,,,,flower,Fleur,Blume,
91.93925180000952,93.18775579996873,1.23,,,1,93.18785350001417,93.1878899000003,,,hammer,7,7,,,,,,,,,,,,,,,,,,,,,,,,,,None,,,None,2026-07-21_15h43.31.784,42,TSRlearn_localizer-concepts,2026-07-21 15h43.33.075437 +0200,,90.23410760000115,91.95539780001855,91.95539780001855,93.22171429998707,,,,60.065723919094076,89.48184249998303,90.23410760000115,,,89.47185959998751,90.21543219999876,,,hammer\hammer_42.jpg,,,,,,,,,,,,,,,,,,,,0,1,None,90.23410760000115,,,,,None,,0,,,2025.2.4,,,90.22373249998782,91.93918139999732,,,90.2318259666829,90.74957210000139,,,3,0,2026-07-21_15:45:02.542416,3,4,,None,,None,3,3,0,3,,,,,,hammer,Marteau,Hammer,
95.6969372999738,96.92981619999046,1.23,,,1,96.92988949996652,96.92992690001847,,,jacket,10,3,,,,,,,,,,,,,,,,,,,,,,,,,,None,,,r,2026-07-21_15h43.31.784,38,TSRlearn_localizer-concepts,2026-07-21 15h43.33.075437 +0200,,93.98059330001706,95.71363949996885,95.71363949996885,97.00932810001541,,,,60.065723919094076,93.22171429998707,93.98059330001706,,,93.2027051000041,93.96487859997433,,,jacket\jacket_38.jpg,,,,,,,,,,,,,,,,,,,,1,1,None,93.98059330001706,,,,,left,,0,,,2025.2.4,,,93.96804040001007,95.69687009998597,,,93.9813051666754,94.89728949998971,,,4,0,2026-07-21_15:45:06.282287,4,5,,None,,None,4,4,0,4,,,,,,bread,Pain,Brot,
99.47005910001462,100.55400080000982,1.07,,,1,100.55412280000746,100.55418959999224,,,ball,1,1,,,,,,,,,,,,,,,,,,,,,,,,,,None,,,None,2026-07-21_15h43.31.784,45,TSRlearn_localizer-concepts,2026-07-21 15h43.33.075437 +0200,,97.76336659997469,99.48625379998703,99.48625379998703,100.60737139999401,,,,60.065723919094076,97.00932810001541,97.76336659997469,,,96.99520950001897,97.74597360001644,,,ball\ball_45.jpg,,,,,,,,,,,,,,,,,,,,0,1,None,97.76336659997469,,,,,None,,0,,,2025.2.4,,,97.75473240000429,99.46998709999025,,,97.76249596663207,98.52914820000296,,,5,0,2026-07-21_15:45:10.069901,5,6,,None,,None,5,5,0,5,,,,,,ball,Ballon,Ball,
103.07933009997942,104.0606575999991,0.98,,,1,104.06073590001324,104.06077440001536,,,house,9,9,,,,,,,,,,,,,,,,,,,,,,,,,,None,,,None,2026-07-21_15h43.31.784,17,TSRlearn_localizer-concepts,2026-07-21 15h43.33.075437 +0200,,101.37152069999138,103.09528529999079,103.09528529999079,104.14171820000047,,,,60.065723919094076,100.60737139999401,101.37152069999138,,,100.58705869998084,101.34736850002082,,,house\house_17.jpg,,,,,,,,,,,,,,,,,,,,0,1,None,101.37152069999138,,,,,None,,0,,,2025.2.4,,,101.35405879997415,103.07924559997628,,,101.363839266651,101.89582500001416,,,6,0,2026-07-21_15:45:13.667944,6,7,,None,,None,6,6,0,6,,,,,,house,Maison,Haus,
106.61049459996866,107.5609157999861,0.95,,,1,107.56100139999762,107.56107499997597,,,ball,1,1,,,,,,,,,,,,,,,,,,,,,,,,,,None,,,None,2026-07-21_15h43.31.784,7,TSRlearn_localizer-concepts,2026-07-21 15h43.33.075437 +0200,,104.89420430001337,106.62673489999725,106.62673489999725,107.61000270000659,,,,60.065723919094076,104.14171820000047,104.89420430001337,,,104.11700600001495,104.87719640001887,,,ball\ball_07.jpg,,,,,,,,,,,,,,,,,,,,0,1,None,104.89420430001337,,,,,None,,0,,,2025.2.4,,,104.88013850001153,106.61042290000478,,,104.89369716664466,105.66026630002307,,,7,0,2026-07-21_15:45:17.202291,7,8,,None,,None,7,7,0,7,,,,,,ball,Ballon,Ball,
110.06229349999921,111.22684459999437,1.16,,,1,111.22691879997728,111.22696359996917,,,hammer,7,7,,,,,,,,,,,,,,,,,,,,,,,,,,None,,,None,2026-07-21_15h43.31.784,34,TSRlearn_localizer-concepts,2026-07-21 15h43.33.075437 +0200,,108.37416619999567,110.07625300000655,110.07625300000655,111.29180950002046,,,,60.065723919094076,107.61000270000659,108.37416619999567,,,107.58858809998492,108.35392540000612,,,hammer\hammer_34.jpg,,,,,,,,,,,,,,,,,,,,0,1,None,108.37416619999567,,,,,None,,0,,,2025.2.4,,,108.35751739999978,110.06222239998169,,,108.3703485666813,108.89468420000048,,,8,0,2026-07-21_15:45:20.670576,8,9,,None,,None,8,8,0,8,,,,,,hammer,Marteau,Hammer,
113.75775069999509,115.00723390001804,1.25,,,1,115.00731219997397,115.00735149998218,,,hand,8,8,,,,,,,,,,,,,,,,,,,,,,,,,,None,,,None,2026-07-21_15h43.31.784,5,TSRlearn_localizer-concepts,2026-07-21 15h43.33.075437 +0200,,112.04147870000452,113.77393520000624,113.77393520000624,115.05291089997627,,,,60.065723919094076,111.29180950002046,112.04147870000452,,,111.26844449999044,112.02488879999146,,,hand\hand_05.jpg,,,,,,,,,,,,,,,,,,,,0,1,None,112.04147870000452,,,,,None,,0,,,2025.2.4,,,112.02882619999582,113.75767109997105,,,112.04138776666174,112.52458540000953,,,9,0,2026-07-21_15:45:24.352383,9,10,,None,,None,9,9,0,9,,,,,,hand,Main,Hand,
117.4949237999972,118.42334019998088,0.92,,,1,118.42340390000027,118.4234482999891,,,bicycle,2,2,,,,,,,,,,,,,,,,,,,,,,,,,,None,,,None,2026-07-21_15h43.31.784,45,TSRlearn_localizer-concepts,2026-07-21 15h43.33.075437 +0200,,115.80968850001227,117.51409509999212,117.51409509999212,118.4532773999963,,,,60.065723919094076,115.05291089997627,115.80968850001227,,,115.04212050000206,115.79128639999544,,,bicycle\bicycle_45.jpg,,,,,,,,,,,,,,,,,,,,0,1,None,115.80968850001227,,,,,None,,0,,,2025.2.4,,,115.7934077999671,117.49485239997739,,,115.80773676664491,116.51795900001889,,,10,0,2026-07-21_15:45:28.113484,10,11,,None,,None,10,10,0,10,,,,,,bicycle,Vélo,Fahrrad,
120.92375129996799,121.722094799974,0.79,,,1,121.72219230001792,121.72223129996564,,,house,9,9,,,,,,,,,,,,,,,,,,,,,,,,,,None,,,None,2026-07-21_15h43.31.784,7,TSRlearn_localizer-concepts,2026-07-21 15h43.33.075437 +0200,,119.21093589998782,120.93946439999854,120.93946439999854,121.74516469996888,,,,60.065723919094076,118.4532773999963,119.21093589998782,,,118.43912419996923,119.19171169999754,,,house\house_07.jpg,,,,,,,,,,,,,,,,,,,,0,1,None,119.21093589998782,,,,,None,,0,,,2025.2.4,,,119.1960703000077,120.9236751999706,,,119.20816306665462,119.75524480000604,,,11,0,2026-07-21_15:45:31.513850,11,12,,None,,None,11,11,0,11,,,,,,house,Maison,Haus,
124.20610459998716,125.40972609998425,1.19,,,1,125.40979239996523,125.40982459997758,,,dog,5,5,,,,,,,,,,,,,,,,,,,,,,,,,,None,,,None,2026-07-21_15h43.31.784,39,TSRlearn_localizer-concepts,2026-07-21 15h43.33.075437 +0200,,122.5053871999844,124.22151689999737,124.22151689999737,125.45213890000014,,,,60.065723919094076,121.74516469996888,122.5053871999844,,,121.7369774999679,122.48835699999472,,,dog\dog_39.jpg,,,,,,,,,,,,,,,,,,,,0,1,None,122.5053871999844,,,,,None,,0,,,2025.2.4,,,122.49618550000014,124.20603519998258,,,122.50480356667346,122.98782979999669,,,12,0,2026-07-21_15:45:34.805738,12,13,,None,,None,12,12,0,12,,,,,,dog,Chien,Hund,
127.90395369997714,128.77065329998732,0.86,,,1,128.77074820001144,128.77079919999233,,,hand,8,8,,,,,,,,,,,,,,,,,,,,,,,,,,None,,,None,2026-07-21_15h43.31.784,18,TSRlearn_localizer-concepts,2026-07-21 15h43.33.075437 +0200,,126.20423999999184,127.92135050002253,127.92135050002253,128.79681969998637,,,,60.065723919094076,125.45213890000014,126.20423999999184,,,125.43888859997969,126.1877110999776,,,hand\hand_18.jpg,,,,,,,,,,,,,,,,,,,,0,1,None,126.20423999999184,,,,,None,,0,,,2025.2.4,,,126.19120689999545,127.90387550002197,,,126.20418296667437,126.68778919999022,,,13,0,2026-07-21_15:45:38.512712,13,14,,None,,None,13,13,0,13,,,,,,hand,Main,Hand,
131.26903640001547,132.37004060001345,1.09,,,1,132.37011219997657,132.37014670000644,,,dog,5,5,,,,,,,,,,,,,,,,,,,,,,,,,,None,,,None,2026-07-21_15h43.31.784,30,TSRlearn_localizer-concepts,2026-07-21 15h43.33.075437 +0200,,129.55263360001845,131.2854746999801,131.2854746999801,132.39700689999154,,,,60.065723919094076,128.79681969998637,129.55263360001845,,,128.78740390000166,129.53616770001827,,,dog\dog_30.jpg,,,,,,,,,,,,,,,,,,,,0,1,None,129.55263360001845,,,,,None,,0,,,2025.2.4,,,129.5396339999861,131.26894149999134,,,129.55267426668823,130.03743730002316,,,14,0,2026-07-21_15:45:41.857393,14,15,,None,,None,14,14,0,14,,,,,,dog,Chien,Hund,
134.83623459999217,135.66926140000578,0.82,,,1,135.6693532000063,135.66940790001536,,,hammer,7,8,,,,,,,,,,,,,,,,,,,,,,,,,,None,,,r,2026-07-21_15h43.31.784,7,TSRlearn_localizer-concepts,2026-07-21 15h43.33.075437 +0200,,133.15202669997234,134.85410070000216,134.85410070000216,135.7403678999981,,,,60.065723919094076,132.39700689999154,133.15202669997234,,,132.3880105999997,133.13552820001496,,,hammer\hammer_07.jpg,,,,,,,,,,,,,,,,,,,,1,1,None,133.15202669997234,,,,,left,,0,,,2025.2.4,,,133.13897909998195,134.83616239996627,,,133.15198676666867,133.6423974999925,,,15,0,2026-07-21_15:45:45.457580,15,16,,None,,None,15,15,0,15,,,,,,hand,Main,Hand,
138.20162970002275,139.09981669997796,0.89,,,1,139.0998909000191,139.09992599999532,,,chair,4,4,,,,,,,,,,,,,,,,,,,,,,,,,,None,,,None,2026-07-21_15h43.31.784,45,TSRlearn_localizer-concepts,2026-07-21 15h43.33.075437 +0200,,136.50805760000367,138.21688239998184,138.21688239998184,139.14496629999485,,,,60.065723919094076,135.7403678999981,136.50805760000367,,,135.7133175000199,136.4849151999806,,,chair\chair_45.jpg,,,,,,,,,,,,,,,,,,,,0,1,None,136.50805760000367,,,,,None,,0,,,2025.2.4,,,136.4886612999835,138.20154719997663,,,136.50136936665902,137.06788549997145,,,16,0,2026-07-21_15:45:48.800941,16,17,,None,,None,16,16,0,16,,,,,,chair,Chaise,Stuhl,
141.59916139999405,142.84012080001412,1.23,,,1,142.840192499978,142.84022710000863,,,jacket,10,10,,,,,,,,,,,,,,,,,,,,,,,,,,None,,,None,2026-07-21_15h43.31.784,17,TSRlearn_localizer-concepts,2026-07-21 15h43.33.075437 +0200,,139.89902979996987,141.6167086000205,141.6167086000205,142.89093019999564,,,,60.065723919094076,139.14496629999485,139.89902979996987,,,139.1341814000043,139.88258049997967,,,jacket\jacket_17.jpg,,,,,,,,,,,,,,,,,,,,0,1,None,139.89902979996987,,,,,None,,0,,,2025.2.4,,,139.88813729997491,141.59908329998143,,,139.89907786663778,140.4497771000024,,,17,0,2026-07-21_15:45:52.205539,17,18,,None,,None,17,17,0,17,,,,,,jacket,Veste,Jacke,
145.36510719999205,146.3308736999752,0.95,,,1,146.33096419996582,146.33100559999002,,,chair,4,4,,,,,,,,,,,,,,,,,,,,,,,,,,None,,,None,2026-07-21_15h43.31.784,6,TSRlearn_localizer-concepts,2026-07-21 15h43.33.075437 +0200,,143.65020259999437,145.38194230000954,145.38194230000954,146.3648444999708,,,,60.065723919094076,142.89093019999564,143.65020259999437,,,142.8689937000163,143.63448160002008,,,chair\chair_06.jpg,,,,,,,,,,,,,,,,,,,,0,1,None,143.65020259999437,,,,,None,,0,,,2025.2.4,,,143.63789329997962,145.3650414000149,,,143.65090066666406,144.22301750001498,,,18,0,2026-07-21_15:45:55.951503,18,19,,None,,None,18,18,0,18,,,,,,chair,Chaise,Stuhl,
148.83035170001676,149.78000949998386,0.94,,,1,149.78014180000173,149.78017980000004,,,flower,6,6,,,,,,,,,,,,,,,,,,,,,,,,,,None,,,None,2026-07-21_15h43.31.784,14,TSRlearn_localizer-concepts,2026-07-21 15h43.33.075437 +0200,,147.13871059997473,148.84643059998052,148.84643059998052,149.84016469999915,,,,60.065723919094076,146.3648444999708,147.13871059997473,,,146.35613739996916,147.11723059997894,,,flower\flower_14.jpg,,,,,,,,,,,,,,,,,,,,0,1,None,147.13871059997473,,,,,None,,0,,,2025.2.4,,,147.12001399998553,148.83026770001743,,,147.13365766668383,148.01422720000846,,,19,0,2026-07-21_15:45:59.425418,19,20,,None,,None,19,19,0,19,,,,,,flower,Fleur,Blume,
152.32042649999494,153.45137039996916,1.12,,,1,153.45144239999354,153.45147989998804,,,bread,3,3,,,,,,,,,,,,,,,,,,,,,,,,,,None,,,None,2026-07-21_15h43.31.784,48,TSRlearn_localizer-concepts,2026-07-21 15h43.33.075437 +0200,,150.60871840000618,152.3356199999689,152.3356199999689,153.48803850001423,,,,60.065723919094076,149.84016469999915,150.60871840000618,,,149.82025200000498,150.58745110000018,,,bread\bread_48.jpg,,,,,,,,,,,,,,,,,,,,0,1,None,150.60871840000618,,,,,None,,0,,,2025.2.4,,,150.5908000000054,152.32031540002208,,,150.60381526663357,151.52796249999665,,,20,0,2026-07-21_15:46:02.900738,20,21,,None,,None,20,20,0,20,,,,,,bread,Pain,Brot,
155.94512069999473,156.87860629998613,0.92,,,1,156.87868540000636,156.87872909998987,,,bicycle,2,2,,,,,,,,,,,,,,,,,,,,,,,,,,None,,,None,2026-07-21_15h43.31.784,46,TSRlearn_localizer-concepts,2026-07-21 15h43.33.075437 +0200,,154.24027080001542,155.9609739999869,155.9609739999869,156.99811809998937,,,,60.065723919094076,153.48803850001423,154.24027080001542,,,153.468566800002,154.22153149999212,,,bicycle\bicycle_46.jpg,,,,,,,,,,,,,,,,,,,,0,1,None,154.24027080001542,,,,,None,,0,,,2025.2.4,,,154.22393619996728,155.94503870001063,,,154.2379099666762,154.94446919998154,,,21,0,2026-07-21_15:46:06.548612,21,22,,None,,None,21,21,0,21,,,,,,bicycle,Vélo,Fahrrad,
159.45144309999887,160.61738020001212,1.16,,,1,160.61746209999546,160.6175039000227,,,ball,1,1,,,,,,,,,,,,,,,,,,,,,,,,,,None,,,None,2026-07-21_15h43.31.784,5,TSRlearn_localizer-concepts,2026-07-21 15h43.33.075437 +0200,,157.76062780001666,159.46692360000452,159.46692360000452,160.68519459996605,,,,60.065723919094076,156.99811809998937,157.76062780001666,,,156.95411170000443,157.74431969999569,,,ball\ball_05.jpg,,,,,,,,,,,,,,,,,,,,0,1,None,157.76062780001666,,,,,None,,0,,,2025.2.4,,,157.7470481999917,159.4513645999832,,,157.7607707666505,158.52693100000033,,,22,0,2026-07-21_15:46:10.058691,22,23,,None,,None,22,22,0,22,,,,,,ball,Ballon,Ball,
163.1359038000228,164.10987079999177,0.95,,,1,164.1099521999713,164.1099962000153,,,jacket,10,10,,,,,,,,,,,,,,,,,,,,,,,,,,None,,,None,2026-07-21_15h43.31.784,35,TSRlearn_localizer-concepts,2026-07-21 15h43.33.075437 +0200,,161.44659200002206,163.16408119996777,163.16408119996777,164.14883239998017,,,,60.065723919094076,160.68519459996605,161.44659200002206,,,160.6617262000218,161.42750569997588,,,jacket\jacket_35.jpg,,,,,,,,,,,,,,,,,,,,0,1,None,161.44659200002206,,,,,None,,0,,,2025.2.4,,,161.43194079998648,163.1358192000189,,,161.4439673666532,161.9836854999885,,,23,0,2026-07-21_15:46:13.745768,23,24,,None,,None,23,23,0,23,,,,,,jacket,Veste,Jacke,
166.62498879997293,167.7166326000006,1.09,,,1,167.71675740001956,167.71681840001838,,,hand,8,2,,,,,,,,,,,,,,,,,,,,,,,,,,None,,,r,2026-07-21_15h43.31.784,38,TSRlearn_localizer-concepts,2026-07-21 15h43.33.075437 +0200,,164.90804030001163,166.6418603999773,166.6418603999773,167.79544850002276,,,,60.065723919094076,164.14883239998017,164.90804030001163,,,164.12987840001006,164.89321700000437,,,hand\hand_38.jpg,,,,,,,,,,,,,,,,,,,,1,1,None,164.90804030001163,,,,,left,,0,,,2025.2.4,,,164.89530179998837,166.6248972999747,,,164.90968516667297,165.6083555999794,,,24,0,2026-07-21_15:46:17.209405,24,25,,None,,None,24,24,0,24,,,,,,bicycle,Vélo,Fahrrad,
170.2483351000119,171.16383989999304,0.91,,,1,171.16392030002316,171.16397190000862,,,flower,6,6,,,,,,,,,,,,,,,,,,,,,,,,,,None,,,None,2026-07-21_15h43.31.784,40,TSRlearn_localizer-concepts,2026-07-21 15h43.33.075437 +0200,,168.54788849997567,170.26450390001992,170.26450390001992,171.21542500000214,,,,60.065723919094076,167.79544850002276,168.54788849997567,,,167.77029279997805,168.53150039998582,,,flower\flower_40.jpg,,,,,,,,,,,,,,,,,,,,0,1,None,168.54788849997567,,,,,None,,0,,,2025.2.4,,,168.53413460002048,170.24825940001756,,,168.54789426667074,169.44758969999384,,,25,0,2026-07-21_15:46:20.856022,25,26,,None,,None,25,25,0,25,,,,,,flower,Fleur,Blume,
173.68913919996703,174.90497430000687,1.21,,,1,174.90506700001424,174.9051121000084,,,house,9,9,,,,,,,,,,,,,,,,,,,,,,,,,,None,,,None,2026-07-21_15h43.31.784,34,TSRlearn_localizer-concepts,2026-07-21 15h43.33.075437 +0200,,171.98200519999955,173.70516140002292,173.70516140002292,174.92932320002,,,,60.065723919094076,171.21542500000214,171.98200519999955,,,171.19406660000095,171.96200569998473,,,house\house_34.jpg,,,,,,,,,,,,,,,,,,,,0,1,None,171.98200519999955,,,,,None,,0,,,2025.2.4,,,171.9665929999901,173.68906689999858,,,171.97842726664774,172.5292865000083,,,26,0,2026-07-21_15:46:24.275998,26,27,,None,,None,26,26,0,26,,,,,,house,Maison,Haus,
177.38797699997667,178.4215735999751,1.03,,,1,178.42163870000513,178.4216709000175,,,dog,5,5,,,,,,,,,,,,,,,,,,,,,,,,,,None,,,None,2026-07-21_15h43.31.784,5,TSRlearn_localizer-concepts,2026-07-21 15h43.33.075437 +0200,,175.68805609998526,177.40434670000104,177.40434670000104,178.4590774999815,,,,60.065723919094076,174.92932320002,175.68805609998526,,,174.92088190000504,175.67116059997352,,,dog\dog_05.jpg,,,,,,,,,,,,,,,,,,,,0,1,None,175.68805609998526,,,,,None,,0,,,2025.2.4,,,175.67456670000684,177.38790570001584,,,175.68766016664839,176.17210169997998,,,27,0,2026-07-21_15:46:27.989896,27,28,,None,,None,27,27,0,27,,,,,,dog,Chien,Hund,
180.9295094999834,181.90566019999096,0.98,,,1,181.90573790000053,181.90577700000722,,,hand,8,8,,,,,,,,,,,,,,,,,,,,,,,,,,None,,,None,2026-07-21_15h43.31.784,10,TSRlearn_localizer-concepts,2026-07-21 15h43.33.075437 +0200,,179.23851070000092,180.94146880001063,180.94146880001063,181.95185810001567,,,,60.065723919094076,178.4590774999815,179.23851070000092,,,178.44963099999586,179.21196549996966,,,hand\hand_10.jpg,,,,,,,,,,,,,,,,,,,,0,1,None,179.23851070000092,,,,,None,,0,,,2025.2.4,,,179.2176737000118,180.92942970001604,,,179.2281906666506,179.72418449999532,,,28,0,2026-07-21_15:46:31.519651,28,29,,None,,None,28,28,0,28,,,,,,hand,Main,Hand,
184.40230369998608,185.45214740000665,1.05,,,1,185.45227940002223,185.45233499997994,,,flower,6,6,,,,,,,,,,,,,,,,,,,,,,,,,,None,,,None,2026-07-21_15h43.31.784,32,TSRlearn_localizer-concepts,2026-07-21 15h43.33.075437 +0200,,182.72019099997124,184.41847360000247,184.41847360000247,185.4794870999758,,,,60.065723919094076,181.95185810001567,182.72019099997124,,,181.93425930000376,182.6919673999655,,,flower\flower_32.jpg,,,,,,,,,,,,,,,,,,,,0,1,None,182.72019099997124,,,,,None,,0,,,2025.2.4,,,182.694837499992,184.40222119999817,,,182.7082301666417,183.60261960001662,,,29,0,2026-07-21_15:46:35.012431,29,30,,None,,None,29,29,0,29,,,,,,flower,Fleur,Blume,
187.92560509999748,188.70973319996847,0.77,,,1,188.70983010000782,188.70988829998532,,,hammer,7,7,,,,,,,,,,,,,,,,,,,,,,,,,,None,,,None,2026-07-21_15h43.31.784,27,TSRlearn_localizer-concepts,2026-07-21 15h43.33.075437 +0200,,186.234604199999,187.94273629999952,187.94273629999952,188.76016289996915,,,,60.065723919094076,185.4794870999758,186.234604199999,,,185.47085480001988,186.21858330001123,,,hammer\hammer_27.jpg,,,,,,,,,,,,,,,,,,,,0,1,None,186.234604199999,,,,,None,,0,,,2025.2.4,,,186.2222136000055,187.92552789999172,,,186.2350660666746,186.75866310001584,,,30,0,2026-07-21_15:46:38.540060,30,31,,None,,None,30,30,0,30,,,,,,hammer,Marteau,Hammer,
191.22002120001707,192.33334780001314,1.11,,,1,192.33342779998202,192.33346940000774,,,dog,5,5,,,,,,,,,,,,,,,,,,,,,,,,,,None,,,None,2026-07-21_15h43.31.784,6,TSRlearn_localizer-concepts,2026-07-21 15h43.33.075437 +0200,,189.52213990001474,191.23394389997702,191.23394389997702,192.37198029999854,,,,60.065723919094076,188.76016289996915,189.52213990001474,,,188.7418203999987,189.50216149998596,,,dog\dog_06.jpg,,,,,,,,,,,,,,,,,,,,0,1,None,189.52213990001474,,,,,None,,0,,,2025.2.4,,,189.50539309997112,191.21992459998,,,189.51862216665566,190.00524650001898,,,31,0,2026-07-21_15:46:41.820736,31,32,,None,,None,31,31,0,31,,,,,,dog,Chien,Hund,
194.8323566999752,195.75024159997702,0.91,,,1,195.75031420000596,195.7503502999898,,,flower,6,6,,,,,,,,,,,,,,,,,,,,,,,,,,None,,,None,2026-07-21_15h43.31.784,4,TSRlearn_localizer-concepts,2026-07-21 15h43.33.075437 +0200,,193.13245269999607,194.84953239996685,194.84953239996685,195.8545119999908,,,,60.065723919094076,192.37198029999854,193.13245269999607,,,192.3630831000046,193.1161297999788,,,flower\flower_04.jpg,,,,,,,,,,,,,,,,,,,,0,1,None,193.13245269999607,,,,,None,,0,,,2025.2.4,,,193.1189313000068,194.83229380002012,,,193.1326569666892,194.0322823000024,,,32,0,2026-07-21_15:46:45.432553,32,33,,None,,None,32,32,0,32,,,,,,flower,Fleur,Blume,
198.31967349996557,199.15064279997023,0.82,,,1,199.1507222999935,199.15076360001694,,,ball,1,1,,,,,,,,,,,,,,,,,,,,,,,,,,None,,,None,2026-07-21_15h43.31.784,11,TSRlearn_localizer-concepts,2026-07-21 15h43.33.075437 +0200,,196.61900629999582,198.33890779997455,198.33890779997455,199.19409110001288,,,,60.065723919094076,195.8545119999908,196.61900629999582,,,195.81749759998638,196.6032010000199,,,ball\ball_11.jpg,,,,,,,,,,,,,,,,,,,,0,1,None,196.61900629999582,,,,,None,,0,,,2025.2.4,,,196.6068288999959,198.31959570001345,,,196.61951206665643,197.40650400001323,,,33,0,2026-07-21_15:46:48.915085,33,34,,None,,None,33,33,0,33,,,,,,ball,Ballon,Ball,
201.66660559998127,202.62974449998,0.95,,,1,202.62982390000252,202.629865099967,,,jacket,10,10,,,,,,,,,,,,,,,,,,,,,,,,,,None,,,None,2026-07-21_15h43.31.784,11,TSRlearn_localizer-concepts,2026-07-21 15h43.33.075437 +0200,,199.9640100999968,201.68151879997458,201.68151879997458,202.6594726999756,,,,60.065723919094076,199.19409110001288,199.9640100999968,,,199.17357470002025,199.93844009999884,,,jacket\jacket_11.jpg,,,,,,,,,,,,,,,,,,,,0,1,None,199.9640100999968,,,,,None,,0,,,2025.2.4,,,199.94336719997227,201.6665344000212,,,199.95485796663368,200.49721539998427,,,34,0,2026-07-21_15:46:52.254664,34,35,,None,,None,34,34,0,34,,,,,,jacket,Veste,Jacke,
205.10845150001114,206.08631280000554,0.96,,,1,206.08639660000335,206.08643329999177,,,house,9,9,,,,,,,,,,,,,,,,,,,,,,,,,,None,,,None,2026-07-21_15h43.31.784,13,TSRlearn_localizer-concepts,2026-07-21 15h43.33.075437 +0200,,203.41724879998947,205.122169499984,205.122169499984,206.12835040001664,,,,60.065723919094076,202.6594726999756,203.41724879998947,,,202.65100860001985,203.3966178999981,,,house\house_13.jpg,,,,,,,,,,,,,,,,,,,,0,1,None,203.41724879998947,,,,,None,,0,,,2025.2.4,,,203.40083399997093,205.10830029996578,,,203.41309676663175,203.96237459999975,,,35,0,2026-07-21_15:46:55.720046,35,36,,None,,None,35,35,0,35,,,,,,house,Maison,Haus,
208.57071050000377,209.81130850000773,1.24,,,1,209.81138580001425,209.81142490002094,,,bicycle,2,2,,,,,,,,,,,,,,,,,,,,,,,,,,None,,,None,2026-07-21_15h43.31.784,6,TSRlearn_localizer-concepts,2026-07-21 15h43.33.075437 +0200,,206.88308050000342,208.5844531999901,208.5844531999901,209.9246839999687,,,,60.065723919094076,206.12835040001664,206.88308050000342,,,206.10925679997308,206.86269889998948,,,bicycle\bicycle_06.jpg,,,,,,,,,,,,,,,,,,,,0,1,None,206.88308050000342,,,,,None,,0,,,2025.2.4,,,206.8649070999818,208.5706284000189,,,206.87915646663558,207.6001927999896,,,36,0,2026-07-21_15:46:59.188924,36,37,,None,,None,36,36,0,36,,,,,,bicycle,Vélo,Fahrrad,
212.3945974999806,213.54370179999387,1.15,,,1,213.54378800000995,213.54383739997866,,,bread,3,3,,,,,,,,,,,,,,,,,,,,,,,,,,None,,,None,2026-07-21_15h43.31.784,15,TSRlearn_localizer-concepts,2026-07-21 15h43.33.075437 +0200,,210.6774225999834,212.40993560000788,212.40993560000788,213.57882290001726,,,,60.065723919094076,209.9246839999687,210.6774225999834,,,209.8936173999682,210.66102190001402,,,bread\bread_15.jpg,,,,,,,,,,,,,,,,,,,,0,1,None,210.6774225999834,,,,,None,,0,,,2025.2.4,,,210.66475090000313,212.39452410000376,,,210.6774039666673,211.5937130000093,,,37,0,2026-07-21_15:47:02.985257,37,38,,None,,None,37,37,0,37,,,,,,bread,Pain,Brot,
216.04501649999293,217.11614050000207,1.06,,,1,217.11622119997628,217.11626029998297,,,house,9,5,,,,,,,,,,,,,,,,,,,,,,,,,,None,,,r,2026-07-21_15h43.31.784,40,TSRlearn_localizer-concepts,2026-07-21 15h43.33.075437 +0200,,214.33787889999803,216.060854499985,216.060854499985,217.15077010000823,,,,60.065723919094076,213.57882290001726,214.33787889999803,,,213.56532599998172,214.31712530000368,,,house\house_40.jpg,,,,,,,,,,,,,,,,,,,,1,1,None,214.33787889999803,,,,,right,,0,,,2025.2.4,,,214.32047380000586,216.04493630002253,,,214.33356996666797,214.80906120000873,,,38,0,2026-07-21_15:47:06.639396,38,39,,None,,None,38,38,0,38,,,,,,dog,Chien,Hund,
219.60798309999518,220.42427919997135,0.81,,,1,220.424361900019,220.42439970001578,,,bicycle,2,2,,,,,,,,,,,,,,,,,,,,,,,,,,None,,,None,2026-07-21_15h43.31.784,13,TSRlearn_localizer-concepts,2026-07-21 15h43.33.075437 +0200,,217.9082509999862,219.62438880000263,219.62438880000263,220.465028000006,,,,60.065723919094076,217.15077010000823,217.9082509999862,,,217.13266770000337,217.8918978999718,,,bicycle\bicycle_13.jpg,,,,,,,,,,,,,,,,,,,,0,1,None,217.9082509999862,,,,,None,,0,,,2025.2.4,,,217.89414410002064,219.60789970000042,,,217.90836176666588,218.60784919996513,,,39,0,2026-07-21_15:47:10.211343,39,40,,None,,None,39,39,0,39,,,,,,bicycle,Vélo,Fahrrad,
222.91446080000605,224.11141539999517,1.19,,,1,224.11148269998375,224.11151379998773,,,bread,3,3,,,,,,,,,,,,,,,,,,,,,,,,,,None,,,None,2026-07-21_15h43.31.784,21,TSRlearn_localizer-concepts,2026-07-21 15h43.33.075437 +0200,,221.22451299999375,222.93079389998456,222.93079389998456,224.14775569998892,,,,60.065723919094076,220.465028000006,221.22451299999375,,,220.45560839999234,221.2085857000202,,,bread\bread_21.jpg,,,,,,,,,,,,,,,,,,,,0,1,None,221.22451299999375,,,,,None,,0,,,2025.2.4,,,221.21144799998729,222.91437489999225,,,221.2250543666344,222.14079149998724,,,40,0,2026-07-21_15:47:13.525601,40,41,,None,,None,40,40,0,40,,,,,,bread,Pain,Brot,
226.60925450001378,227.47338129999116,0.85,,,1,227.47346120001748,227.47350309998728,,,hand,8,8,,,,,,,,,,,,,,,,,,,,,,,,,,None,,,None,2026-07-21_15h43.31.784,14,TSRlearn_localizer-concepts,2026-07-21 15h43.33.075437 +0200,,224.90834419999737,226.62415529997088,226.62415529997088,227.5052326999721,,,,60.065723919094076,224.14775569998892,224.90834419999737,,,224.12904999998864,224.89267079997808,,,hand\hand_14.jpg,,,,,,,,,,,,,,,,,,,,0,1,None,224.90834419999737,,,,,None,,0,,,2025.2.4,,,224.89596110000275,226.609185600013,,,224.90895076666882,225.39645080000628,,,41,0,2026-07-21_15:47:17.208329,41,42,,None,,None,41,41,0,41,,,,,,hand,Main,Hand,
229.95500949997222,230.72136139997747,0.76,,,1,230.72145790001377,230.72150849999161,,,chair,4,4,,,,,,,,,,,,,,,,,,,,,,,,,,None,,,None,2026-07-21_15h43.31.784,23,TSRlearn_localizer-concepts,2026-07-21 15h43.33.075437 +0200,,228.25623719999567,229.97134829999413,229.97134829999413,230.75727709999774,,,,60.065723919094076,227.5052326999721,228.25623719999567,,,227.49399879999692,228.23929220001446,,,chair\chair_23.jpg,,,,,,,,,,,,,,,,,,,,0,1,None,228.25623719999567,,,,,None,,0,,,2025.2.4,,,228.24307159997988,229.95494219998363,,,228.25565556664176,228.80477789998986,,,42,0,2026-07-21_15:47:20.565806,42,43,,None,,None,42,42,0,42,,,,,,chair,Chaise,Stuhl,
233.2081880000187,234.4422892999719,1.22,,,1,234.44236440001987,234.44239809998544,,,bicycle,2,2,,,,,,,,,,,,,,,,,,,,,,,,,,None,,,None,2026-07-21_15h43.31.784,31,TSRlearn_localizer-concepts,2026-07-21 15h43.33.075437 +0200,,231.5087631000206,233.22386149998056,233.22386149998056,234.48487699998077,,,,60.065723919094076,230.75727709999774,231.5087631000206,,,230.73809379996965,231.49288159998832,,,bicycle\bicycle_31.jpg,,,,,,,,,,,,,,,,,,,,0,1,None,231.5087631000206,,,,,None,,0,,,2025.2.4,,,231.4953080000123,233.20811599999433,,,231.5092344666521,232.20702819997678,,,43,0,2026-07-21_15:47:23.817850,43,44,,None,,None,43,43,0,43,,,,,,bicycle,Vélo,Fahrrad,
236.95218630001182,238.00248189998092,1.05,,,1,238.00254889996722,238.0025839000009,,,hammer,7,7,,,,,,,,,,,,,,,,,,,,,,,,,,None,,,None,2026-07-21_15h43.31.784,31,TSRlearn_localizer-concepts,2026-07-21 15h43.33.075437 +0200,,235.25141899997834,236.96856539999135,236.96856539999135,238.05263980000746,,,,60.065723919094076,234.48487699998077,235.25141899997834,,,234.46527410001727,235.22699880000437,,,hammer\hammer_31.jpg,,,,,,,,,,,,,,,,,,,,0,1,None,235.25141899997834,,,,,None,,0,,,2025.2.4,,,235.23045029997593,236.95205560000613,,,235.24344786664395,235.76925140002277,,,44,0,2026-07-21_15:47:27.545450,44,45,,None,,None,44,44,0,44,,,,,,hammer,Marteau,Hammer,
240.50871249998454,241.64024119998794,1.12,,,1,241.6403178999899,241.64035429997602,,,chair,4,4,,,,,,,,,,,,,,,,,,,,,,,,,,None,,,None,2026-07-21_15h43.31.784,46,TSRlearn_localizer-concepts,2026-07-21 15h43.33.075437 +0200,,238.80981549998978,240.5265575000085,240.5265575000085,241.70347130001755,,,,60.065723919094076,238.05263980000746,238.80981549998978,,,238.0403651999659,238.7900771999848,,,chair\chair_46.jpg,,,,,,,,,,,,,,,,,,,,0,1,None,238.80981549998978,,,,,None,,0,,,2025.2.4,,,238.79413619998377,240.5086266999715,,,238.80652556667727,239.36963779997313,,,45,0,2026-07-21_15:47:31.113213,45,46,,None,,None,45,45,0,45,,,,,,chair,Chaise,Stuhl,
244.15162690001307,245.08290949999355,0.92,,,1,245.0829808000126,245.0830178000033,,,ball,1,2,,,,,,,,,,,,,,,,,,,,,,,,,,None,,,r,2026-07-21_15h43.31.784,13,TSRlearn_localizer-concepts,2026-07-21 15h43.33.075437 +0200,,242.45982669998193,244.1713257000083,244.1713257000083,245.1334657999687,,,,60.065723919094076,241.70347130001755,242.45982669998193,,,241.6727450999897,242.44161069998518,,,ball\ball_13.jpg,,,,,,,,,,,,,,,,,,,,1,1,None,242.45982669998193,,,,,left,,0,,,2025.2.4,,,242.44370980001986,244.1515548999887,,,242.4580319666459,243.17128920002142,,,46,0,2026-07-21_15:47:34.764044,46,47,,None,,None,46,46,0,46,,,,,,bicycle,Vélo,Fahrrad,
247.59879030002048,248.38987299997825,0.79,,,1,248.38995029998478,248.38998969999375,,,bread,3,3,,,,,,,,,,,,,,,,,,,,,,,,,,None,,,None,2026-07-21_15h43.31.784,37,TSRlearn_localizer-concepts,2026-07-21 15h43.33.075437 +0200,,245.88228139997227,247.6154983000015,247.6154983000015,248.4645720999688,,,,60.065723919094076,245.1334657999687,245.88228139997227,,,245.12404640001478,245.86617499997374,,,bread\bread_37.jpg,,,,,,,,,,,,,,,,,,,,0,1,None,245.88228139997227,,,,,None,,0,,,2025.2.4,,,245.86900860001333,247.59872309997445,,,245.88263776665943,246.79890270001488,,,47,0,2026-07-21_15:47:38.194039,47,48,,None,,None,47,47,0,47,,,,,,bread,Pain,Brot,
250.9068799999659,252.11619169998448,1.2,,,1,252.11627100000624,252.11631229997147,,,dog,5,5,,,,,,,,,,,,,,,,,,,,,,,,,,None,,,None,2026-07-21_15h43.31.784,44,TSRlearn_localizer-concepts,2026-07-21 15h43.33.075437 +0200,,249.22237430000678,250.9217484999681,250.9217484999681,252.18194420001237,,,,60.065723919094076,248.4645720999688,249.22237430000678,,,248.43365620000986,249.20306919998256,,,dog\dog_44.jpg,,,,,,,,,,,,,,,,,,,,0,1,None,249.22237430000678,,,,,None,,0,,,2025.2.4,,,249.20690920000197,250.90680789999897,,,249.21939766663516,249.70805959997233,,,48,0,2026-07-21_15:47:41.525145,48,49,,None,,None,48,48,0,48,,,,,,dog,Chien,Hund,
254.64690340001835,255.66310820000945,1.01,,,1,255.6631889999844,278.95671260001836,255.67924909997964,270.6914325999678,jacket,10,10,,,,,,,,,,,,,,,,,,,,,,,,,0.09141190000809729,r,8.174375400005374,270.6749727000133,None,2026-07-21_15h43.31.784,44,TSRlearn_localizer-concepts,2026-07-21 15h43.33.075437 +0200,,252.9470333000063,254.6634505999973,254.6634505999973,255.67924909997964,,,,60.065723919094076,252.18194420001237,252.9470333000063,,,252.16171010001563,252.93082299997332,,,jacket\jacket_44.jpg,270.6749727000133,,,,,,,,,,,,,,,,,,,0,1,None,252.9470333000063,,,,,None,,0,255.67924909997964,270.6914325999678,2025.2.4,,,252.93495660001645,254.64682859997265,,,252.94728206668904,253.4813117000158,,,49,0,2026-07-21_15:47:45.242517,49,50,0.09141190000809729,r,8.174375400005374,None,49,49,0,49,,,,,,jacket,Veste,Jacke,
281.47223209997173,282.52443659998244,1.05,,,2,282.5288934999844,282.528937999974,,,flower,6,6,,,,,,,,,,,,,,,,,,,,,,,,,,None,,,None,2026-07-21_15h43.31.784,27,TSRlearn_localizer-concepts,2026-07-21 15h43.33.075437 +0200,,279.772037799994,281.4890498999739,281.4890498999739,282.56365590001224,,,,60.065723919094076,279.0077342999866,279.772037799994,,,278.99638929998036,279.7551869999734,,,flower\flower_27.jpg,,,,,,,,,,,,,,,,,,,,0,1,None,279.772037799994,,,,,None,,0,,,2025.2.4,,,279.7580791999935,281.4721460000146,,,279.7717284666762,280.65470919996733,,,50,0,2026-07-21_15:48:12.068307,50,1,,None,,None,50,50,0,50,,,,,,flower,Fleur,Blume,
285.00990990002174,286.22070840001106,1.2,,,2,286.22078729997156,286.2208267999813,,,chair,4,4,,,,,,,,,,,,,,,,,,,,,,,,,,None,,,None,2026-07-21_15h43.31.784,21,TSRlearn_localizer-concepts,2026-07-21 15h43.33.075437 +0200,,283.3211421999731,285.0244829999865,285.0244829999865,286.2752565999981,,,,60.065723919094076,282.56365590001224,283.3211421999731,,,282.5457543999655,283.29887840000447,,,chair\chair_21.jpg,,,,,,,,,,,,,,,,,,,,0,1,None,283.3211421999731,,,,,None,,0,,,2025.2.4,,,283.30241730000125,285.00983689998975,,,283.3153138666569,283.8783771999879,,,51,0,2026-07-21_15:48:15.624229,51,2,,None,,None,51,51,0,51,,,,,,chair,Chaise,Stuhl,
288.7525672999909,289.636528300005,0.88,,,2,289.63660169998184,289.63663969998015,,,hand,8,8,,,,,,,,,,,,,,,,,,,,,,,,,,None,,,None,2026-07-21_15h43.31.784,5,TSRlearn_localizer-concepts,2026-07-21 15h43.33.075437 +0200,,287.03604899998754,288.7694895999739,288.7694895999739,289.6761151999817,,,,60.065723919094076,286.2752565999981,287.03604899998754,,,286.2561602999922,287.020286199986,,,hand\hand_05.jpg,,,,,,,,,,,,,,,,,,,,0,1,None,287.03604899998754,,,,,None,,0,,,2025.2.4,,,287.0240791999968,288.7524951000232,,,287.0366759666397,287.51948139996966,,,52,0,2026-07-21_15:48:19.335830,52,3,,None,,None,52,52,0,52,,,,,,hand,Main,Hand,
292.1265323999687,293.1275333999656,0.98,,,2,293.127614099998,293.1276545000146,,,dog,5,5,,,,,,,,,,,,,,,,,,,,,,,,,,None,,,None,2026-07-21_15h43.31.784,6,TSRlearn_localizer-concepts,2026-07-21 15h43.33.075437 +0200,,290.43755470000906,292.1426341999904,292.1426341999904,293.16132139996625,,,,60.065723919094076,289.6761151999817,290.43755470000906,,,289.66528349998407,290.41935899999226,,,dog\dog_06.jpg,,,,,,,,,,,,,,,,,,,,0,1,None,290.43755470000906,,,,,None,,0,,,2025.2.4,,,290.4227902999846,292.12639699998545,,,290.4357948666477,290.91901929996675,,,53,0,2026-07-21_15:48:22.736688,53,4,,None,,None,53,53,0,53,,,,,,dog,Chien,Hund,
295.6340701999725,296.48359580000397,0.84,,,2,296.4837201000191,296.48377099999925,,,hammer,7,7,,,,,,,,,,,,,,,,,,,,,,,,,,None,,,None,2026-07-21_15h43.31.784,31,TSRlearn_localizer-concepts,2026-07-21 15h43.33.075437 +0200,,293.92740019998746,295.65011549997143,295.65011549997143,296.57160749996547,,,,60.065723919094076,293.16132139996625,293.92740019998746,,,293.1440528999665,293.9088928999845,,,hammer\hammer_31.jpg,,,,,,,,,,,,,,,,,,,,0,1,None,293.92740019998746,,,,,None,,0,,,2025.2.4,,,293.91213640000205,295.6339912000112,,,293.9253498666842,294.43489169998793,,,54,0,2026-07-21_15:48:26.221895,54,5,,None,,None,54,54,0,54,,,,,,hammer,Marteau,Hammer,
299.0408232000191,299.97367029997986,0.93,,,2,299.97375389997615,299.97379550000187,,,ball,1,1,,,,,,,,,,,,,,,,,,,,,,,,,,None,,,None,2026-07-21_15h43.31.784,11,TSRlearn_localizer-concepts,2026-07-21 15h43.33.075437 +0200,,297.3333592999843,299.0569932999788,299.0569932999788,300.027117599966,,,,60.065723919094076,296.57160749996547,297.3333592999843,,,296.54464570002165,297.31658539996715,,,ball\ball_11.jpg,,,,,,,,,,,,,,,,,,,,0,1,None,297.3333592999843,,,,,None,,0,,,2025.2.4,,,297.3195921999868,299.0407522000023,,,297.3331054666817,298.09980169998016,,,55,0,2026-07-21_15:48:29.632181,55,6,,None,,None,55,55,0,55,,,,,,ball,Ballon,Ball,
302.50616069999523,303.66449060000014,1.15,,,2,303.66461839998374,303.66467530000955,,,hammer,7,7,,,,,,,,,,,,,,,,,,,,,,,,,,None,,,None,2026-07-21_15h43.31.784,34,TSRlearn_localizer-concepts,2026-07-21 15h43.33.075437 +0200,,300.7984257999924,302.5194134999765,302.5194134999765,303.7141515999683,,,,60.065723919094076,300.027117599966,300.7984257999924,,,300.00696939998306,300.7732554000104,,,hammer\hammer_34.jpg,,,,,,,,,,,,,,,,,,,,0,1,None,300.7984257999924,,,,,None,,0,,,2025.2.4,,,300.777865400014,302.50608620001003,,,300.7895513666483,301.2986544999876,,,56,0,2026-07-21_15:48:33.087691,56,7,,None,,None,56,56,0,56,,,,,,hammer,Marteau,Hammer,
306.1804459000123,307.16614230000414,0.98,,,2,307.16621130000567,307.1662525999709,,,bicycle,2,8,,,,,,,,,,,,,,,,,,,,,,,,,,None,,,r,2026-07-21_15h43.31.784,45,TSRlearn_localizer-concepts,2026-07-21 15h43.33.075437 +0200,,304.46758589998353,306.1970343000139,306.1970343000139,307.20672189997276,,,,60.065723919094076,303.7141515999683,304.46758589998353,,,303.7004553999868,304.44780419999734,,,bicycle\bicycle_45.jpg,,,,,,,,,,,,,,,,,,,,1,1,None,304.46758589998353,,,,,left,,0,,,2025.2.4,,,304.45096529996954,306.18030060001183,,,304.46432166663385,304.9474965999834,,,57,0,2026-07-21_15:48:36.774725,57,8,,None,,None,57,57,0,57,,,,,,hand,Main,Hand,
309.65399999998044,310.5038573999773,0.85,,,2,310.503965699987,310.5040082000196,,,bread,3,3,,,,,,,,,,,,,,,,,,,,,,,,,,None,,,None,2026-07-21_15h43.31.784,12,TSRlearn_localizer-concepts,2026-07-21 15h43.33.075437 +0200,,307.96340820001205,309.67020270001376,309.67020270001376,310.5392526999931,,,,60.065723919094076,307.20672189997276,307.96340820001205,,,307.1952708999743,307.94722440000623,,,bread\bread_12.jpg,,,,,,,,,,,,,,,,,,,,0,1,None,307.96340820001205,,,,,None,,0,,,2025.2.4,,,307.95039399998495,309.6539310999797,,,307.9636693666728,308.8840017999755,,,58,0,2026-07-21_15:48:40.267295,58,9,,None,,None,58,58,0,58,,,,,,bread,Pain,Brot,
313.01195199997164,313.89444699999876,0.88,,,2,313.89451949996874,313.89455409999937,,,hammer,7,7,,,,,,,,,,,,,,,,,,,,,,,,,,None,,,None,2026-07-21_15h43.31.784,27,TSRlearn_localizer-concepts,2026-07-21 15h43.33.075437 +0200,,311.3138039999758,313.02842300001066,313.02842300001066,313.91631100000814,,,,60.065723919094076,310.5392526999931,311.3138039999758,,,310.52117169997655,311.28742670000065,,,hammer\hammer_27.jpg,,,,,,,,,,,,,,,,,,,,0,1,None,311.3138039999758,,,,,None,,0,,,2025.2.4,,,311.2931329999701,313.01188289996935,,,311.30361946666767,311.83122930000536,,,59,0,2026-07-21_15:48:43.599826,59,10,,None,,None,59,59,0,59,,,,,,hammer,Marteau,Hammer,
316.36876460001804,317.6023016999825,1.22,,,2,317.60239620000357,317.602456099994,,,bicycle,2,2,,,,,,,,,,,,,,,,,,,,,,,,,,None,,,None,2026-07-21_15h43.31.784,46,TSRlearn_localizer-concepts,2026-07-21 15h43.33.075437 +0200,,314.66357699997025,316.38501979998546,316.38501979998546,317.67042209999636,,,,60.065723919094076,313.91631100000814,314.66357699997025,,,313.90790729998844,314.64982569997665,,,bicycle\bicycle_46.jpg,,,,,,,,,,,,,,,,,,,,0,1,None,314.66357699997025,,,,,None,,0,,,2025.2.4,,,314.652155400021,316.36869109998224,,,314.6662731666622,315.37826530000893,,,60,0,2026-07-21_15:48:46.976884,60,11,,None,,None,60,60,0,60,,,,,,bicycle,Vélo,Fahrrad,
320.14355929999147,320.9426501999842,0.8,,,2,320.94272920000367,320.9427714999765,,,jacket,10,4,,,,,,,,,,,,,,,,,,,,,,,,,,None,,,r,2026-07-21_15h43.31.784,44,TSRlearn_localizer-concepts,2026-07-21 15h43.33.075437 +0200,,318.44239450001623,320.1601166999899,320.1601166999899,320.9705203999765,,,,60.065723919094076,317.67042209999636,318.44239450001623,,,317.6463862999808,318.4200204999652,,,jacket\jacket_44.jpg,,,,,,,,,,,,,,,,,,,,1,1,None,318.44239450001623,,,,,left,,0,,,2025.2.4,,,318.4236930999905,320.1434943000204,,,318.4364540666613,319.001603599987,,,61,0,2026-07-21_15:48:50.730995,61,12,,None,,None,61,61,0,61,,,,,,chair,Chaise,Stuhl,
323.44218850001926,324.3250937999692,0.87,,,2,324.32516890001716,324.32520720001776,,,house,9,9,,,,,,,,,,,,,,,,,,,,,,,,,,None,,,None,2026-07-21_15h43.31.784,7,TSRlearn_localizer-concepts,2026-07-21 15h43.33.075437 +0200,,321.7291162000038,323.4592137999716,323.4592137999716,324.381708699977,,,,60.065723919094076,320.9705203999765,321.7291162000038,,,320.9596027000225,321.71368970000185,,,house\house_07.jpg,,,,,,,,,,,,,,,,,,,,0,1,None,321.7291162000038,,,,,None,,0,,,2025.2.4,,,321.71826370002236,323.4421135999728,,,321.73013606667905,322.2754821999697,,,62,0,2026-07-21_15:48:54.031094,62,13,,None,,None,62,62,0,62,,,,,,house,Maison,Haus,
326.8325911000138,327.6984042999684,0.86,,,2,327.6984878000221,327.6985316000064,,,ball,1,1,,,,,,,,,,,,,,,,,,,,,,,,,,None,,,None,2026-07-21_15h43.31.784,45,TSRlearn_localizer-concepts,2026-07-21 15h43.33.075437 +0200,,325.1351980000036,326.8461277000024,326.8461277000024,327.7590858999756,,,,60.065723919094076,324.381708699977,325.1351980000036,,,324.36779479996767,325.1150794000132,,,ball\ball_45.jpg,,,,,,,,,,,,,,,,,,,,0,1,None,325.1351980000036,,,,,None,,0,,,2025.2.4,,,325.1186820999719,326.83251290000044,,,325.1313299666547,325.9062008999754,,,63,0,2026-07-21_15:48:57.442282,63,14,,None,,None,63,63,0,63,,,,,,ball,Ballon,Ball,
330.22394019999774,331.406241699995,1.18,,,2,331.4063116000034,331.40634589997353,,,bread,3,3,,,,,,,,,,,,,,,,,,,,,,,,,,None,,,None,2026-07-21_15h43.31.784,37,TSRlearn_localizer-concepts,2026-07-21 15h43.33.075437 +0200,,328.51495609997073,330.24021919997176,330.24021919997176,331.43127960001584,,,,60.065723919094076,327.7590858999756,328.51495609997073,,,327.7370921999682,328.49438210000517,,,bread\bread_37.jpg,,,,,,,,,,,,,,,,,,,,0,1,None,328.51495609997073,,,,,None,,0,,,2025.2.4,,,328.4975388000021,330.2238747999654,,,328.5107192666658,329.42426010000054,,,64,0,2026-07-21_15:49:00.819659,64,15,,None,,None,64,64,0,64,,,,,,bread,Pain,Brot,
333.8757130000158,334.89510389999487,1.01,,,2,334.89518799999496,334.8952299999655,,,dog,5,5,,,,,,,,,,,,,,,,,,,,,,,,,,None,,,None,2026-07-21_15h43.31.784,30,TSRlearn_localizer-concepts,2026-07-21 15h43.33.075437 +0200,,332.1887493999675,333.89248049998423,333.89248049998423,334.9307562999893,,,,60.065723919094076,331.43127960001584,332.1887493999675,,,331.42324380000355,332.17297339998186,,,dog\dog_30.jpg,,,,,,,,,,,,,,,,,,,,0,1,None,332.1887493999675,,,,,None,,0,,,2025.2.4,,,332.1765363999875,333.87564619997283,,,332.18946766667455,332.6719697000226,,,65,0,2026-07-21_15:49:04.491853,65,16,,None,,None,65,65,0,65,,,,,,dog,Chien,Hund,
337.3936577999848,338.35429250000743,0.95,,,2,338.3543716999702,338.35441430000355,,,house,9,9,,,,,,,,,,,,,,,,,,,,,,,,,,None,,,None,2026-07-21_15h43.31.784,13,TSRlearn_localizer-concepts,2026-07-21 15h43.33.075437 +0200,,335.70166149997385,337.41228769999,337.41228769999,338.38028149999445,,,,60.065723919094076,334.9307562999893,335.70166149997385,,,334.9127287999727,335.67827059997944,,,house\house_13.jpg,,,,,,,,,,,,,,,,,,,,0,1,None,335.70166149997385,,,,,None,,0,,,2025.2.4,,,335.6830919000204,337.39358159998665,,,335.6947136666897,336.23656599997776,,,66,0,2026-07-21_15:49:07.991329,66,17,,None,,None,66,66,0,66,,,,,,house,Maison,Haus,
340.8371629000176,341.97794579999754,1.14,,,2,341.9780238000094,341.97806330001913,,,jacket,10,10,,,,,,,,,,,,,,,,,,,,,,,,,,None,,,None,2026-07-21_15h43.31.784,27,TSRlearn_localizer-concepts,2026-07-21 15h43.33.075437 +0200,,339.1370256000082,340.85328129999107,340.85328129999107,342.0289362000185,,,,60.065723919094076,338.38028149999445,339.1370256000082,,,338.371230299992,339.12063409999246,,,jacket\jacket_27.jpg,,,,,,,,,,,,,,,,,,,,0,1,None,339.1370256000082,,,,,None,,0,,,2025.2.4,,,339.12520529999165,340.83708819997264,,,339.13705956668514,339.67033340001944,,,67,0,2026-07-21_15:49:11.440855,67,18,,None,,None,67,67,0,67,,,,,,jacket,Veste,Jacke,
344.49320359999547,345.67258559999755,1.18,,,2,345.67266189999646,345.6726974999765,,,hand,8,8,,,,,,,,,,,,,,,,,,,,,,,,,,None,,,None,2026-07-21_15h43.31.784,36,TSRlearn_localizer-concepts,2026-07-21 15h43.33.075437 +0200,,342.79870819998905,344.50937039998826,344.50937039998826,345.7090008999803,,,,60.065723919094076,342.0289362000185,342.79870819998905,,,342.0116180999903,342.77658659999724,,,hand\hand_36.jpg,,,,,,,,,,,,,,,,,,,,0,1,None,342.79870819998905,,,,,None,,0,,,2025.2.4,,,342.7809211999993,344.4931173999794,,,342.7929955666807,343.28647300001467,,,68,0,2026-07-21_15:49:15.089509,68,19,,None,,None,68,68,0,68,,,,,,hand,Main,Hand,
348.1682238000212,349.3502717000083,1.18,,,2,349.3503916999907,349.35044130001916,,,dog,5,5,,,,,,,,,,,,,,,,,,,,,,,,,,None,,,None,2026-07-21_15h43.31.784,39,TSRlearn_localizer-concepts,2026-07-21 15h43.33.075437 +0200,,346.46635250002146,348.18462800001726,348.18462800001726,349.4026994999731,,,,60.065723919094076,345.7090008999803,346.46635250002146,,,345.6911523999879,346.44361020001816,,,dog\dog_39.jpg,,,,,,,,,,,,,,,,,,,,0,1,None,346.46635250002146,,,,,None,,0,,,2025.2.4,,,346.447095200012,348.1681462000124,,,346.4600207666556,346.951202599972,,,69,0,2026-07-21_15:49:18.769574,69,20,,None,,None,69,69,0,69,,,,,,dog,Chien,Hund,
351.87239269999554,352.72385219996795,0.84,,,2,352.72393320000265,352.7239739000215,,,chair,4,4,,,,,,,,,,,,,,,,,,,,,,,,,,None,,,None,2026-07-21_15h43.31.784,46,TSRlearn_localizer-concepts,2026-07-21 15h43.33.075437 +0200,,350.16635110002244,351.88950260001,351.88950260001,352.7738571999944,,,,60.065723919094076,349.4026994999731,350.16635110002244,,,349.386282499996,350.1513960000011,,,chair\chair_46.jpg,,,,,,,,,,,,,,,,,,,,0,1,None,350.16635110002244,,,,,None,,0,,,2025.2.4,,,350.1549167999765,351.87232049996965,,,350.1677955666712,350.71801120002056,,,70,0,2026-07-21_15:49:22.463273,70,21,,None,,None,70,70,0,70,,,,,,chair,Chaise,Stuhl,
355.2485418000142,356.3476934999926,1.09,,,2,356.34783230000176,356.3478888999671,,,flower,6,6,,,,,,,,,,,,,,,,,,,,,,,,,,None,,,None,2026-07-21_15h43.31.784,32,TSRlearn_localizer-concepts,2026-07-21 15h43.33.075437 +0200,,353.53759149997495,355.2652206000057,355.2652206000057,356.40142150002066,,,,60.065723919094076,352.7738571999944,353.53759149997495,,,352.7544984999695,353.5211956999847,,,flower\flower_32.jpg,,,,,,,,,,,,,,,,,,,,0,1,None,353.53759149997495,,,,,None,,0,,,2025.2.4,,,353.52379910001764,355.2484701999929,,,353.5376671666784,354.43628439999884,,,71,0,2026-07-21_15:49:25.834430,71,22,,None,,None,71,71,0,71,,,,,,flower,Fleur,Blume,
358.8641181999701,359.7716300999746,0.89,,,2,359.77171270002145,359.77175249997526,,,bread,3,3,,,,,,,,,,,,,,,,,,,,,,,,,,None,,,None,2026-07-21_15h43.31.784,48,TSRlearn_localizer-concepts,2026-07-21 15h43.33.075437 +0200,,357.1640177000081,358.88029439997626,358.88029439997626,359.80767199996626,,,,60.065723919094076,356.40142150002066,357.1640177000081,,,356.3864461000194,357.1476914000232,,,bread\bread_48.jpg,,,,,,,,,,,,,,,,,,,,0,1,None,357.1640177000081,,,,,None,,0,,,2025.2.4,,,357.1508262999705,358.8640501999762,,,357.16421646665935,358.0808904999867,,,72,0,2026-07-21_15:49:29.461995,72,23,,None,,None,72,72,0,72,,,,,,bread,Pain,Brot,
362.27059709996684,363.34894379996695,1.07,,,2,363.34902869997313,363.349069399992,,,chair,4,4,,,,,,,,,,,,,,,,,,,,,,,,,,None,,,None,2026-07-21_15h43.31.784,27,TSRlearn_localizer-concepts,2026-07-21 15h43.33.075437 +0200,,360.5801154000219,362.28717520000646,362.28717520000646,363.3834938000073,,,,60.065723919094076,359.80767199996626,360.5801154000219,,,359.78795269998955,360.5551368999877,,,chair\chair_27.jpg,,,,,,,,,,,,,,,,,,,,0,1,None,360.5801154000219,,,,,None,,0,,,2025.2.4,,,360.56009889999405,362.27050450001843,,,360.5713967666418,361.1392011999851,,,73,0,2026-07-21_15:49:32.868245,73,24,,None,,None,73,73,0,73,,,,,,chair,Chaise,Stuhl,
365.86517010000534,367.11124310002197,1.24,,,2,367.1113266000175,367.11136089998763,,,bicycle,2,2,,,,,,,,,,,,,,,,,,,,,,,,,,None,,,None,2026-07-21_15h43.31.784,6,TSRlearn_localizer-concepts,2026-07-21 15h43.33.075437 +0200,,364.1452770999749,365.8784242999973,365.8784242999973,367.1420570000191,,,,60.065723919094076,363.3834938000073,364.1452770999749,,,363.3657440000097,364.12879769998835,,,bicycle\bicycle_06.jpg,,,,,,,,,,,,,,,,,,,,0,1,None,364.1452770999749,,,,,None,,0,,,2025.2.4,,,364.131046399998,365.86509869998554,,,364.1452336666446,364.86212489998434,,,74,0,2026-07-21_15:49:36.444067,74,25,,None,,None,74,74,0,74,,,,,,bicycle,Vélo,Fahrrad,
369.60189360001823,370.801290399977,1.19,,,2,370.80138810002245,370.80143210000824,,,hammer,7,7,,,,,,,,,,,,,,,,,,,,,,,,,,None,,,None,2026-07-21_15h43.31.784,14,TSRlearn_localizer-concepts,2026-07-21 15h43.33.075437 +0200,,367.8983145999955,369.6179892999935,369.6179892999935,370.90017139998963,,,,60.065723919094076,367.1420570000191,367.8983145999955,,,367.1330178999924,367.87826959998347,,,hammer\hammer_14.jpg,,,,,,,,,,,,,,,,,,,,0,1,None,367.8983145999955,,,,,None,,0,,,2025.2.4,,,367.8814337999793,369.6018235000083,,,367.8947712666743,368.3942037000088,,,75,0,2026-07-21_15:49:40.202630,75,26,,None,,None,75,75,0,75,,,,,,hammer,Marteau,Hammer,
373.3759823999717,374.1593429999775,0.78,,,2,374.15946900000563,374.1595068000024,,,bread,3,3,,,,,,,,,,,,,,,,,,,,,,,,,,None,,,None,2026-07-21_15h43.31.784,15,TSRlearn_localizer-concepts,2026-07-21 15h43.33.075437 +0200,,371.6647190999938,373.3923791999696,373.3923791999696,374.2145834999974,,,,60.065723919094076,370.90017139998963,371.6647190999938,,,370.8649613999878,371.6499629999744,,,bread\bread_15.jpg,,,,,,,,,,,,,,,,,,,,0,1,None,371.6647190999938,,,,,None,,0,,,2025.2.4,,,371.6533353999839,373.37589299998945,,,371.6664424666708,372.5945439999923,,,76,0,2026-07-21_15:49:43.960745,76,27,,None,,None,76,76,0,76,,,,,,bread,Pain,Brot,
376.6759920999757,377.8808984999778,1.2,,,2,377.8810068999883,377.8810530999908,,,flower,6,6,,,,,,,,,,,,,,,,,,,,,,,,,,None,,,None,2026-07-21_15h43.31.784,47,TSRlearn_localizer-concepts,2026-07-21 15h43.33.075437 +0200,,374.97595569997793,376.69274889997905,376.69274889997905,377.9243531000102,,,,60.065723919094076,374.2145834999974,374.97595569997793,,,374.20168759999797,374.9588803999941,,,flower\flower_47.jpg,,,,,,,,,,,,,,,,,,,,0,1,None,374.97595569997793,,,,,None,,0,,,2025.2.4,,,374.9618919999921,376.6759079999756,,,374.975326466669,375.85837979998905,,,77,0,2026-07-21_15:49:47.275156,77,28,,None,,None,77,77,0,77,,,,,,flower,Fleur,Blume,
380.3826982000028,381.1913060999941,0.81,,,2,381.1913867999683,381.19142779998947,,,jacket,10,10,,,,,,,,,,,,,,,,,,,,,,,,,,None,,,None,2026-07-21_15h43.31.784,11,TSRlearn_localizer-concepts,2026-07-21 15h43.33.075437 +0200,,378.6911981999874,380.39794350002194,380.39794350002194,381.2774380000192,,,,60.065723919094076,377.9243531000102,378.6911981999874,,,377.9016477999976,378.6666319000069,,,jacket\jacket_11.jpg,,,,,,,,,,,,,,,,,,,,0,1,None,378.6911981999874,,,,,None,,0,,,2025.2.4,,,378.6715400000103,380.3826274999883,,,378.6830280666511,379.2312514000223,,,78,0,2026-07-21_15:49:50.984926,78,29,,None,,None,78,78,0,78,,,,,,jacket,Veste,Jacke,
383.7365148999961,384.945959899982,1.21,,,2,384.9460786000127,384.94617700000526,,,ball,1,5,,,,,,,,,,,,,,,,,,,,,,,,,,None,,,r,2026-07-21_15h43.31.784,7,TSRlearn_localizer-concepts,2026-07-21 15h43.33.075437 +0200,,382.03986620000796,383.7477660999866,383.7477660999866,384.97878609999316,,,,60.065723919094076,381.2774380000192,382.03986620000796,,,381.255086500023,382.0235592999961,,,ball\ball_07.jpg,,,,,,,,,,,,,,,,,,,,1,1,None,382.03986620000796,,,,,left,,0,,,2025.2.4,,,382.0278598999721,383.7363229999901,,,382.04001076665395,382.5233888999792,,,79,0,2026-07-21_15:49:54.338011,79,30,,None,,None,79,79,0,79,,,,,,dog,Chien,Hund,
387.43159469997045,388.312358199968,0.88,,,2,388.3125015000114,388.31255679996684,,,chair,4,4,,,,,,,,,,,,,,,,,,,,,,,,,,None,,,None,2026-07-21_15h43.31.784,23,TSRlearn_localizer-concepts,2026-07-21 15h43.33.075437 +0200,,385.7411838999833,387.44525960000465,387.44525960000465,388.39042800001334,,,,60.065723919094076,384.97878609999316,385.7411838999833,,,384.964024099987,385.7142597999773,,,chair\chair_23.jpg,,,,,,,,,,,,,,,,,,,,0,1,None,385.7411838999833,,,,,None,,0,,,2025.2.4,,,385.71951079997234,387.43146200000774,,,385.7306580666375,386.3027406000183,,,80,0,2026-07-21_15:49:58.039359,80,31,,None,,None,80,80,0,80,,,,,,chair,Chaise,Stuhl,
390.8538612999837,391.98696369997924,1.13,,,2,391.9870370000135,391.9870966000017,,,flower,6,6,,,,,,,,,,,,,,,,,,,,,,,,,,None,,,None,2026-07-21_15h43.31.784,40,TSRlearn_localizer-concepts,2026-07-21 15h43.33.075437 +0200,,389.14127760002157,390.87018829997396,390.87018829997396,392.0232878999668,,,,60.065723919094076,388.39042800001334,389.14127760002157,,,388.3654088000185,389.1258557999972,,,flower\flower_40.jpg,,,,,,,,,,,,,,,,,,,,0,1,None,389.14127760002157,,,,,None,,0,,,2025.2.4,,,389.1287712000194,390.85376799997175,,,389.1423153666585,390.02381899999455,,,81,0,2026-07-21_15:50:01.451001,81,32,,None,,None,81,81,0,81,,,,,,flower,Fleur,Blume,
394.5030134000117,395.72673860000214,1.22,,,2,395.72682029998396,395.72685969999293,,,hand,8,9,,,,,,,,,,,,,,,,,,,,,,,,,,None,,,r,2026-07-21_15h43.31.784,18,TSRlearn_localizer-concepts,2026-07-21 15h43.33.075437 +0200,,392.78617079998367,394.52158669999335,394.52158669999335,395.7607646000106,,,,60.065723919094076,392.0232878999668,392.78617079998367,,,392.0123057999881,392.769915700017,,,hand\hand_18.jpg,,,,,,,,,,,,,,,,,,,,1,1,None,392.78617079998367,,,,,right,,0,,,2025.2.4,,,392.7745104000205,394.5029274999979,,,392.78642096667704,393.31912120000925,,,82,0,2026-07-21_15:50:05.083861,82,33,,None,,None,82,82,0,82,,,,,,house,Maison,Haus,
398.22015419998206,399.0020810000133,0.77,,,2,399.00221100001363,399.0022689999896,,,bicycle,2,2,,,,,,,,,,,,,,,,,,,,,,,,,,None,,,None,2026-07-21_15h43.31.784,31,TSRlearn_localizer-concepts,2026-07-21 15h43.33.075437 +0200,,396.52723989996593,398.2365153999999,398.2365153999999,399.0257172000129,,,,60.065723919094076,395.7607646000106,396.52723989996593,,,395.743272599997,396.50631409999914,,,bicycle\bicycle_31.jpg,,,,,,,,,,,,,,,,,,,,0,1,None,396.52723989996593,,,,,None,,0,,,2025.2.4,,,396.5086758999969,398.2200739000109,,,396.52271626668903,397.223055200011,,,83,0,2026-07-21_15:50:08.821338,83,34,,None,,None,83,83,0,83,,,,,,bicycle,Vélo,Fahrrad,
401.4847499000025,402.53383869997924,1.04,,,2,402.53395020001335,402.5340082999901,,,hand,8,8,,,,,,,,,,,,,,,,,,,,,,,,,,None,,,None,2026-07-21_15h43.31.784,14,TSRlearn_localizer-concepts,2026-07-21 15h43.33.075437 +0200,,399.7840850999928,401.50046939996537,401.50046939996537,402.5726428999915,,,,60.065723919094076,399.0257172000129,399.7840850999928,,,399.0176618999685,399.7677459999686,,,hand\hand_14.jpg,,,,,,,,,,,,,,,,,,,,0,1,None,399.7840850999928,,,,,None,,0,,,2025.2.4,,,399.7711021999712,401.48468789999606,,,399.7842620666527,400.2675980000058,,,84,0,2026-07-21_15:50:12.086290,84,35,,None,,None,84,84,0,84,,,,,,hand,Main,Hand,
405.02413069998147,405.92382749996614,0.88,,,2,405.92391750001116,405.92395580001175,,,jacket,10,10,,,,,,,,,,,,,,,,,,,,,,,,,,None,,,None,2026-07-21_15h43.31.784,17,TSRlearn_localizer-concepts,2026-07-21 15h43.33.075437 +0200,,403.3331948000123,405.04034669999965,405.04034669999965,405.9716851999983,,,,60.065723919094076,402.5726428999915,403.3331948000123,,,402.56382019998273,403.3172023000079,,,jacket\jacket_17.jpg,,,,,,,,,,,,,,,,,,,,0,1,None,403.3331948000123,,,,,None,,0,,,2025.2.4,,,403.3220769999898,405.0240532999742,,,403.3336337666881,403.87848539999686,,,85,0,2026-07-21_15:50:15.633216,85,36,,None,,None,85,85,0,85,,,,,,jacket,Veste,Jacke,
408.43309639999643,409.4651942999917,1.02,,,2,409.4652802000055,409.46531920001144,,,house,9,9,,,,,,,,,,,,,,,,,,,,,,,,,,None,,,None,2026-07-21_15h43.31.784,17,TSRlearn_localizer-concepts,2026-07-21 15h43.33.075437 +0200,,406.7287492000032,408.44845309999073,408.44845309999073,409.5223446000018,,,,60.065723919094076,405.9716851999983,406.7287492000032,,,405.95312750001904,406.70635739999125,,,house\house_17.jpg,,,,,,,,,,,,,,,,,,,,0,1,None,406.7287492000032,,,,,None,,0,,,2025.2.4,,,406.71078809996834,408.4330212000059,,,406.7228114666689,407.2651662999997,,,86,0,2026-07-21_15:50:19.032258,86,37,,None,,None,86,86,0,86,,,,,,house,Maison,Haus,
411.97065620002104,413.1865831000032,1.21,,,2,413.18666780000785,413.18670949997613,,,chair,4,4,,,,,,,,,,,,,,,,,,,,,,,,,,None,,,None,2026-07-21_15h43.31.784,45,TSRlearn_localizer-concepts,2026-07-21 15h43.33.075437 +0200,,410.2809397999663,411.98915949999355,411.98915949999355,413.3569600000046,,,,60.065723919094076,409.5223446000018,410.2809397999663,,,409.5087216999964,410.26443450001534,,,chair\chair_45.jpg,,,,,,,,,,,,,,,,,,,,0,1,None,410.2809397999663,,,,,None,,0,,,2025.2.4,,,410.2680704999948,411.9705835999921,,,410.2809306666643,410.84738569997717,,,87,0,2026-07-21_15:50:22.582918,87,38,,None,,None,87,87,0,87,,,,,,chair,Chaise,Stuhl,
415.81582939997315,416.7987307999865,0.97,,,2,416.79880809999304,416.7988464999944,,,ball,1,1,,,,,,,,,,,,,,,,,,,,,,,,,,None,,,None,2026-07-21_15h43.31.784,5,TSRlearn_localizer-concepts,2026-07-21 15h43.33.075437 +0200,,414.1248542999965,415.8308120999718,415.8308120999718,416.86419469997054,,,,60.065723919094076,413.3569600000046,414.1248542999965,,,413.2772067000042,414.104205599986,,,ball\ball_05.jpg,,,,,,,,,,,,,,,,,,,,0,1,None,414.1248542999965,,,,,None,,0,,,2025.2.4,,,414.10742479999317,415.8157418000046,,,414.12059806666025,414.9010503999889,,,88,0,2026-07-21_15:50:26.417533,88,39,,None,,None,88,88,0,88,,,,,,ball,Ballon,Ball,
419.31353869999293,420.30752869998105,0.98,,,2,420.30761359998723,420.3076511999825,,,dog,5,5,,,,,,,,,,,,,,,,,,,,,,,,,,None,,,None,2026-07-21_15h43.31.784,32,TSRlearn_localizer-concepts,2026-07-21 15h43.33.075437 +0200,,417.6285675999825,419.3292856999906,419.3292856999906,420.3898850000114,,,,60.065723919094076,416.86419469997054,417.6285675999825,,,416.84771429997636,417.61209299997427,,,dog\dog_32.jpg,,,,,,,,,,,,,,,,,,,,0,1,None,417.6285675999825,,,,,None,,0,,,2025.2.4,,,417.6156276999973,419.31346149998717,,,417.62860326667237,418.1126492000185,,,89,0,2026-07-21_15:50:29.924768,89,40,,None,,None,89,89,0,89,,,,,,dog,Chien,Hund,
422.8641309000086,424.0493155000149,1.17,,,2,424.0494294000091,424.04948230000446,,,bread,3,3,,,,,,,,,,,,,,,,,,,,,,,,,,None,,,None,2026-07-21_15h43.31.784,19,TSRlearn_localizer-concepts,2026-07-21 15h43.33.075437 +0200,,421.1758081999724,422.8835679999902,422.8835679999902,424.08427789999405,,,,60.065723919094076,420.3898850000114,421.1758081999724,,,420.3643046999932,421.1396987999906,,,bread\bread_19.jpg,,,,,,,,,,,,,,,,,,,,0,1,None,421.1758081999724,,,,,None,,0,,,2025.2.4,,,421.14503919996787,422.86406089999946,,,421.1559981666544,422.0848848000169,,,90,0,2026-07-21_15:50:33.450458,90,41,,None,,None,90,90,0,90,,,,,,bread,Pain,Brot,
426.55917239998234,427.5920260999701,1.02,,,2,427.5921499999822,427.5921893999912,,,bicycle,2,2,,,,,,,,,,,,,,,,,,,,,,,,,,None,,,None,2026-07-21_15h43.31.784,16,TSRlearn_localizer-concepts,2026-07-21 15h43.33.075437 +0200,,424.84490269998787,426.5756367999711,426.5756367999711,427.6458599999896,,,,60.065723919094076,424.08427789999405,424.84490269998787,,,424.07281370001147,424.8279241999844,,,bicycle\bicycle_16.jpg,,,,,,,,,,,,,,,,,,,,0,1,None,424.84490269998787,,,,,None,,0,,,2025.2.4,,,424.83026219997555,426.55908649996854,,,424.8442644666686,425.56087839999236,,,91,0,2026-07-21_15:50:37.144851,91,42,,None,,None,91,91,0,91,,,,,,bicycle,Vélo,Fahrrad,
430.1003536999924,430.8589912999887,0.76,,,2,430.85907170001883,430.8591155000031,,,dog,5,5,,,,,,,,,,,,,,,,,,,,,,,,,,None,,,None,2026-07-21_15h43.31.784,44,TSRlearn_localizer-concepts,2026-07-21 15h43.33.075437 +0200,,428.4107046999852,430.1157727999962,430.1157727999962,430.89954030001536,,,,60.065723919094076,427.6458599999896,428.4107046999852,,,427.632477200008,428.39309540000977,,,dog\dog_44.jpg,,,,,,,,,,,,,,,,,,,,0,1,None,428.4107046999852,,,,,None,,0,,,2025.2.4,,,428.39626379997935,430.10028239997337,,,428.4095680666544,428.9055069999886,,,92,0,2026-07-21_15:50:40.706433,92,43,,None,,None,92,92,0,92,,,,,,dog,Chien,Hund,
433.34105990000535,434.5567658999935,1.21,,,2,434.55685569997877,434.55689529998926,,,house,9,9,,,,,,,,,,,,,,,,,,,,,,,,,,None,,,None,2026-07-21_15h43.31.784,20,TSRlearn_localizer-concepts,2026-07-21 15h43.33.075437 +0200,,431.65632389998063,433.3570727999904,433.3570727999904,434.5887771999696,,,,60.065723919094076,430.89954030001536,431.65632389998063,,,430.8761338000186,431.63241449999623,,,house\house_20.jpg,,,,,,,,,,,,,,,,,,,,0,1,None,431.65632389998063,,,,,None,,0,,,2025.2.4,,,431.63725929998327,433.34099029999925,,,431.6488187666439,432.1955999999773,,,93,0,2026-07-21_15:50:43.960113,93,44,,None,,None,93,93,0,93,,,,,,house,Maison,Haus,
437.0394952999777,437.81532960000914,0.76,,,2,437.81541490001837,437.8154531000182,,,flower,6,6,,,,,,,,,,,,,,,,,,,,,,,,,,None,,,None,2026-07-21_15h43.31.784,14,TSRlearn_localizer-concepts,2026-07-21 15h43.33.075437 +0200,,435.3425551999826,437.0560502000153,437.0560502000153,437.860840999987,,,,60.065723919094076,434.5887771999696,435.3425551999826,,,434.5803786999895,435.3234951000195,,,flower\flower_14.jpg,,,,,,,,,,,,,,,,,,,,0,1,None,435.3425551999826,,,,,None,,0,,,2025.2.4,,,435.3265322999796,437.03942509996705,,,435.33986416663197,436.222386199981,,,94,0,2026-07-21_15:50:47.649350,94,45,,None,,None,94,94,0,94,,,,,,flower,Fleur,Blume,
440.32374949997757,441.33846589998575,1,,,2,441.338545400009,441.33858779998263,,,house,9,10,,,,,,,,,,,,,,,,,,,,,,,,,,None,,,r,2026-07-21_15h43.31.784,34,TSRlearn_localizer-concepts,2026-07-21 15h43.33.075437 +0200,,438.61911410000175,440.34695889998693,440.34695889998693,441.4101293999702,,,,60.065723919094076,437.860840999987,438.61911410000175,,,437.84307639999315,438.5966654000222,,,house\house_34.jpg,,,,,,,,,,,,,,,,,,,,1,1,None,438.61911410000175,,,,,left,,0,,,2025.2.4,,,438.6009476999752,440.3236839000019,,,438.61311646667696,439.1497239000164,,,95,0,2026-07-21_15:50:50.921414,95,46,,None,,None,95,95,0,95,,,,,,jacket,Veste,Jacke,
443.8707012999803,444.8707289000158,1,,,2,444.8708053000155,444.8708438000176,,,hammer,7,7,,,,,,,,,,,,,,,,,,,,,,,,,,None,,,None,2026-07-21_15h43.31.784,42,TSRlearn_localizer-concepts,2026-07-21 15h43.33.075437 +0200,,442.17173309996724,443.88709580001887,443.88709580001887,444.89741360000335,,,,60.065723919094076,441.4101293999702,442.17173309996724,,,441.3772977999761,442.1543739999761,,,hammer\hammer_42.jpg,,,,,,,,,,,,,,,,,,,,0,1,None,442.17173309996724,,,,,None,,0,,,2025.2.4,,,442.1577223999775,443.87062479997985,,,442.17080596666005,442.69141959998524,,,96,0,2026-07-21_15:50:54.470702,96,47,,None,,None,96,96,0,96,,,,,,hammer,Marteau,Hammer,
447.3448071000166,448.0959318999667,0.75,,,2,448.0960419999901,448.09608869999647,,,ball,1,1,,,,,,,,,,,,,,,,,,,,,,,,,,None,,,None,2026-07-21_15h43.31.784,28,TSRlearn_localizer-concepts,2026-07-21 15h43.33.075437 +0200,,445.65663099999074,447.359432999976,447.359432999976,448.1563554999884,,,,60.065723919094076,444.89741360000335,445.65663099999074,,,444.88759339996614,445.6379936999874,,,ball\ball_28.jpg,,,,,,,,,,,,,,,,,,,,0,1,None,445.65663099999074,,,,,None,,0,,,2025.2.4,,,445.6409940000158,447.34473660000367,,,445.6544612666514,446.42349139996804,,,97,0,2026-07-21_15:50:57.957987,97,48,,None,,None,97,97,0,97,,,,,,ball,Ballon,Ball,
450.62554029998137,451.84293390001403,1.21,,,2,451.84302339999704,451.84306599997217,,,hand,8,8,,,,,,,,,,,,,,,,,,,,,,,,,,None,,,None,2026-07-21_15h43.31.784,10,TSRlearn_localizer-concepts,2026-07-21 15h43.33.075437 +0200,,448.9265945000225,450.64370909996796,450.64370909996796,451.9023711999762,,,,60.065723919094076,448.1563554999884,448.9265945000225,,,448.13652150001144,448.9053739000228,,,hand\hand_10.jpg,,,,,,,,,,,,,,,,,,,,0,1,None,448.9265945000225,,,,,None,,0,,,2025.2.4,,,448.9089406999992,450.6254755000118,,,448.9218154666635,449.41096770000877,,,98,0,2026-07-21_15:51:01.216928,98,49,,None,,None,98,98,0,98,,,,,,hand,Main,Hand,
454.3636366999708,455.39358989999164,1.02,,,2,455.39375210000435,474.56870669999626,455.412294299982,470.41827550000744,jacket,10,10,,,,,,,,,,,,,,,,,,,,,,,,,0.12784149998333305,g,4.033903700008523,470.40290559997084,None,2026-07-21_15h43.31.784,35,TSRlearn_localizer-concepts,2026-07-21 15h43.33.075437 +0200,,452.6737085999921,454.3796581000206,454.3796581000206,455.412294299982,,,,60.065723919094076,451.9023711999762,452.6737085999921,,,451.88386250002077,452.6442021999974,,,jacket\jacket_35.jpg,470.40290559997084,,,,,,,,,,,,,,,,,,,0,1,None,452.6737085999921,,,,,None,,0,455.412294299982,470.41827550000744,2025.2.4,,,452.65019620000385,454.3635289000231,,,452.6604811666805,453.2121029999689,,,99,0,2026-07-21_15:51:04.962944,99,50,0.12784149998333305,g,4.033903700008523,None,99,99,0,99,,,,,,jacket,Veste,Jacke,
477.0836958999862,477.9005859000026,0.81,,,3,477.90558239998063,477.9056322000106,,,chair,4,4,,,,,,,,,,,,,,,,,,,,,,,,,,None,,,None,2026-07-21_15h43.31.784,14,TSRlearn_localizer-concepts,2026-07-21 15h43.33.075437 +0200,,475.39200779999373,477.1005885999766,477.1005885999766,477.9434072999866,,,,60.065723919094076,474.61701819999143,475.39200779999373,,,474.5977606999804,475.3682530000224,,,chair\chair_14.jpg,,,,,,,,,,,,,,,,,,,,0,1,None,475.39200779999373,,,,,None,,0,,,2025.2.4,,,475.3720719999983,477.083617199969,,,475.38473306666515,475.951292200014,,,100,0,2026-07-21_15:51:27.677591,100,1,,None,,None,100,100,0,100,,,,,,chair,Chaise,Stuhl,
480.3985730999848,481.5805342000094,1.17,,,3,481.58061720000114,481.58066059998237,,,bicycle,2,6,,,,,,,,,,,,,,,,,,,,,,,,,,None,,,r,2026-07-21_15h43.31.784,6,TSRlearn_localizer-concepts,2026-07-21 15h43.33.075437 +0200,,478.69739929999923,480.4166730999714,480.4166730999714,481.6197968000197,,,,60.065723919094076,477.9434072999866,478.69739929999923,,,477.92534750001505,478.6771394999814,,,bicycle\bicycle_06.jpg,,,,,,,,,,,,,,,,,,,,1,1,None,478.69739929999923,,,,,left,,0,,,2025.2.4,,,478.67971499997657,480.3984911000007,,,478.6936280666889,479.6031725999783,,,101,0,2026-07-21_15:51:31.003980,101,2,,None,,None,101,101,0,101,,,,,,flower,Fleur,Blume,
484.0916904999758,485.3240865999833,1.23,,,3,485.3242045000079,485.3242525999667,,,dog,5,5,,,,,,,,,,,,,,,,,,,,,,,,,,None,,,None,2026-07-21_15h43.31.784,30,TSRlearn_localizer-concepts,2026-07-21 15h43.33.075437 +0200,,482.37698659999296,484.1076526999823,484.1076526999823,485.3479663999751,,,,60.065723919094076,481.6197968000197,482.37698659999296,,,481.60045729996637,482.36030629999004,,,dog\dog_30.jpg,,,,,,,,,,,,,,,,,,,,0,1,None,482.37698659999296,,,,,None,,0,,,2025.2.4,,,482.3634015999851,484.0916028000065,,,482.37675056665125,482.8586948000011,,,102,0,2026-07-21_15:51:34.680370,102,3,,None,,None,102,102,0,102,,,,,,dog,Chien,Hund,
487.8136337000178,488.9433788000024,1.13,,,3,488.94346169999335,488.94350569997914,,,jacket,10,10,,,,,,,,,,,,,,,,,,,,,,,,,,None,,,None,2026-07-21_15h43.31.784,27,TSRlearn_localizer-concepts,2026-07-21 15h43.33.075437 +0200,,486.10717099998146,487.8265180999879,487.8265180999879,488.9799535999773,,,,60.065723919094076,485.3479663999751,486.10717099998146,,,485.3397775000194,486.0903643000056,,,jacket\jacket_27.jpg,,,,,,,,,,,,,,,,,,,,0,1,None,486.10717099998146,,,,,None,,0,,,2025.2.4,,,486.09533430001466,487.8135529999854,,,486.1067809666895,486.65700980002293,,,103,0,2026-07-21_15:51:38.408540,103,4,,None,,None,103,103,0,103,,,,,,jacket,Veste,Jacke,
491.42565119999927,492.4556751999771,1.02,,,3,492.45578800002113,492.455847300007,,,house,9,9,,,,,,,,,,,,,,,,,,,,,,,,,,None,,,None,2026-07-21_15h43.31.784,13,TSRlearn_localizer-concepts,2026-07-21 15h43.33.075437 +0200,,489.7392428999883,491.44183610001346,491.44183610001346,492.48015089996625,,,,60.065723919094076,488.9799535999773,489.7392428999883,,,488.96094489999814,489.7144249000121,,,house\house_13.jpg,,,,,,,,,,,,,,,,,,,,0,1,None,489.7392428999883,,,,,None,,0,,,2025.2.4,,,489.7191647000145,491.4255731999874,,,489.7306262666864,490.27628099999856,,,104,0,2026-07-21_15:51:42.040527,104,5,,None,,None,104,104,0,104,,,,,,house,Maison,Haus,
494.9548768000095,495.88777269999264,0.92,,,3,495.88785990001634,495.8878954999964,,,hammer,7,7,,,,,,,,,,,,,,,,,,,,,,,,,,None,,,None,2026-07-21_15h43.31.784,27,TSRlearn_localizer-concepts,2026-07-21 15h43.33.075437 +0200,,493.23910150001757,494.9714568000054,494.9714568000054,495.94989310001256,,,,60.065723919094076,492.48015089996625,493.23910150001757,,,492.47223409998696,493.22312520002015,,,hammer\hammer_27.jpg,,,,,,,,,,,,,,,,,,,,0,1,None,493.23910150001757,,,,,None,,0,,,2025.2.4,,,493.2265898999758,494.95477219996974,,,493.23948616668736,493.7549846000038,,,105,0,2026-07-21_15:51:45.540724,105,6,,None,,None,105,105,0,105,,,,,,hammer,Marteau,Hammer,
498.42175069998484,499.52733969996916,1.1,,,3,499.52741609996883,499.52745330001926,,,flower,6,6,,,,,,,,,,,,,,,,,,,,,,,,,,None,,,None,2026-07-21_15h43.31.784,40,TSRlearn_localizer-concepts,2026-07-21 15h43.33.075437 +0200,,496.7147755000042,498.442767200002,498.442767200002,499.6185682999785,,,,60.065723919094076,495.94989310001256,496.7147755000042,,,495.93100659997435,496.69498999998905,,,flower\flower_40.jpg,,,,,,,,,,,,,,,,,,,,0,1,None,496.7147755000042,,,,,None,,0,,,2025.2.4,,,496.69790590001503,498.4216786000179,,,496.7114150666787,497.5970690000104,,,106,0,2026-07-21_15:51:49.010466,106,7,,None,,None,106,106,0,106,,,,,,flower,Fleur,Blume,
502.0858800999704,503.05300899996655,0.96,,,3,503.0531182999839,503.0532266999944,,,bread,3,3,,,,,,,,,,,,,,,,,,,,,,,,,,None,,,None,2026-07-21_15h43.31.784,8,TSRlearn_localizer-concepts,2026-07-21 15h43.33.075437 +0200,,500.3787271999754,502.10213569999905,502.10213569999905,503.09946509997826,,,,60.065723919094076,499.6185682999785,500.3787271999754,,,499.59045369998785,500.3561406999943,,,bread\bread_08.jpg,,,,,,,,,,,,,,,,,,,,0,1,None,500.3787271999754,,,,,None,,0,,,2025.2.4,,,500.3594004000188,502.08577409997815,,,500.3725657666839,501.30252700002166,,,107,0,2026-07-21_15:51:52.679141,107,8,,None,,None,107,107,0,107,,,,,,bread,Pain,Brot,
505.5589344999753,506.7069442999782,1.14,,,3,506.7070286999806,506.7070716000162,,,jacket,10,10,,,,,,,,,,,,,,,,,,,,,,,,,,None,,,None,2026-07-21_15h43.31.784,11,TSRlearn_localizer-concepts,2026-07-21 15h43.33.075437 +0200,,503.8522085999721,505.57255989999976,505.57255989999976,506.7553285000031,,,,60.065723919094076,503.09946509997826,503.8522085999721,,,503.07556089997524,503.83689289999893,,,jacket\jacket_11.jpg,,,,,,,,,,,,,,,,,,,,0,1,None,503.8522085999721,,,,,None,,0,,,2025.2.4,,,503.8411502999952,505.55885670002317,,,503.85336716665574,504.4022635999718,,,108,0,2026-07-21_15:51:56.160038,108,9,,None,,None,108,108,0,108,,,,,,jacket,Veste,Jacke,
509.204312100017,510.3378353000153,1.13,,,3,510.33791589998873,510.33795590000227,,,flower,6,6,,,,,,,,,,,,,,,,,,,,,,,,,,None,,,None,2026-07-21_15h43.31.784,32,TSRlearn_localizer-concepts,2026-07-21 15h43.33.075437 +0200,,507.50728329998674,509.2243801999721,509.2243801999721,510.3920614999952,,,,60.065723919094076,506.7553285000031,507.50728329998674,,,506.73609670001315,507.4882279000012,,,flower\flower_32.jpg,,,,,,,,,,,,,,,,,,,,0,1,None,507.50728329998674,,,,,None,,0,,,2025.2.4,,,507.49111190001713,509.20422730001155,,,507.5046551666494,508.40809300000547,,,109,0,2026-07-21_15:51:59.815902,109,10,,None,,None,109,109,0,109,,,,,,flower,Fleur,Blume,
512.8499769999762,513.6988396999659,0.84,,,3,513.6989752000081,513.6990342999925,,,jacket,10,1,,,,,,,,,,,,,,,,,,,,,,,,,,None,,,r,2026-07-21_15h43.31.784,35,TSRlearn_localizer-concepts,2026-07-21 15h43.33.075437 +0200,,511.14927639998496,512.8668408999802,512.8668408999802,513.7347565999953,,,,60.065723919094076,510.3920614999952,511.14927639998496,,,510.37299499998335,511.1328065000125,,,jacket\jacket_35.jpg,,,,,,,,,,,,,,,,,,,,1,1,None,511.14927639998496,,,,,left,,0,,,2025.2.4,,,511.13543690001825,512.8498705999809,,,511.149225766658,511.9161426000064,,,110,0,2026-07-21_15:52:03.452635,110,11,,None,,None,110,110,0,110,,,,,,ball,Ballon,Ball,
516.1880822000094,517.2156957999687,1.02,,,3,517.2157925000065,517.2158319000155,,,hand,8,8,,,,,,,,,,,,,,,,,,,,,,,,,,None,,,None,2026-07-21_15h43.31.784,36,TSRlearn_localizer-concepts,2026-07-21 15h43.33.075437 +0200,,514.4985115000163,516.1998365999898,516.1998365999898,517.3495728999842,,,,60.065723919094076,513.7347565999953,514.4985115000163,,,513.7265740999719,514.4816710000159,,,hand\hand_36.jpg,,,,,,,,,,,,,,,,,,,,0,1,None,514.4985115000163,,,,,None,,0,,,2025.2.4,,,514.485422400001,516.1880087999743,,,514.4980694666776,514.9813133999705,,,111,0,2026-07-21_15:52:06.795330,111,12,,None,,None,111,111,0,111,,,,,,hand,Main,Hand,
519.8143786999863,521.0632127000135,1.25,,,3,521.0632916999748,521.0633310999838,,,ball,1,1,,,,,,,,,,,,,,,,,,,,,,,,,,None,,,None,2026-07-21_15h43.31.784,11,TSRlearn_localizer-concepts,2026-07-21 15h43.33.075437 +0200,,518.1094440000015,519.8306244999985,519.8306244999985,521.1112982999766,,,,60.065723919094076,517.3495728999842,518.1094440000015,,,517.2876094999956,518.0884752999991,,,ball\ball_11.jpg,,,,,,,,,,,,,,,,,,,,0,1,None,518.1094440000015,,,,,None,,0,,,2025.2.4,,,518.0924130000058,519.8143022999866,,,518.1048354666602,518.8822227999917,,,112,0,2026-07-21_15:52:10.410146,112,13,,None,,None,112,112,0,112,,,,,,ball,Ballon,Ball,
523.5621246999945,524.4449052999844,0.88,,,3,524.4450436999905,524.4450943999691,,,bread,3,3,,,,,,,,,,,,,,,,,,,,,,,,,,None,,,None,2026-07-21_15h43.31.784,37,TSRlearn_localizer-concepts,2026-07-21 15h43.33.075437 +0200,,521.8632273999974,523.5787819999969,523.5787819999969,524.4702631999971,,,,60.065723919094076,521.1112982999766,521.8632273999974,,,521.101222599973,521.846220700012,,,bread\bread_37.jpg,,,,,,,,,,,,,,,,,,,,0,1,None,521.8632273999974,,,,,None,,0,,,2025.2.4,,,521.849489699991,523.5620516000199,,,521.8626676666356,522.7952072999906,,,113,0,2026-07-21_15:52:14.171871,113,14,,None,,None,113,113,0,113,,,,,,bread,Pain,Brot,
526.9515977000119,528.1635486999876,1.21,,,3,528.1636608999688,528.1637013999862,,,bicycle,2,2,,,,,,,,,,,,,,,,,,,,,,,,,,None,,,None,2026-07-21_15h43.31.784,46,TSRlearn_localizer-concepts,2026-07-21 15h43.33.075437 +0200,,525.2371089999797,526.967910300009,526.967910300009,528.2148127999972,,,,60.065723919094076,524.4702631999971,525.2371089999797,,,524.4620788000175,525.2193638000172,,,bicycle\bicycle_46.jpg,,,,,,,,,,,,,,,,,,,,0,1,None,525.2371089999797,,,,,None,,0,,,2025.2.4,,,525.2215180000057,526.951518899994,,,525.2358117666483,525.9521178000141,,,114,0,2026-07-21_15:52:17.530836,114,15,,None,,None,114,114,0,114,,,,,,bicycle,Vélo,Fahrrad,
530.6763742999756,531.6598044999992,0.97,,,3,531.6598814000026,531.6599188999971,,,dog,5,5,,,,,,,,,,,,,,,,,,,,,,,,,,None,,,None,2026-07-21_15h43.31.784,32,TSRlearn_localizer-concepts,2026-07-21 15h43.33.075437 +0200,,528.972904699971,530.6935576999676,530.6935576999676,531.7412365999771,,,,60.065723919094076,528.2148127999972,528.972904699971,,,528.197351299983,528.9518271000125,,,dog\dog_32.jpg,,,,,,,,,,,,,,,,,,,,0,1,None,528.972904699971,,,,,None,,0,,,2025.2.4,,,528.9557253000094,530.6763016000041,,,528.968255466669,529.4435834999895,,,115,0,2026-07-21_15:52:21.275386,115,16,,None,,None,115,115,0,115,,,,,,dog,Chien,Hund,
534.1997179000173,535.4529184999992,1.23,,,3,535.4530946000014,535.453164800012,,,ball,1,1,,,,,,,,,,,,,,,,,,,,,,,,,,None,,,None,2026-07-21_15h43.31.784,5,TSRlearn_localizer-concepts,2026-07-21 15h43.33.075437 +0200,,532.492737499997,534.2153697999893,534.2153697999893,535.520500899991,,,,60.065723919094076,531.7412365999771,532.492737499997,,,531.7195934000192,532.4763401999953,,,ball\ball_05.jpg,,,,,,,,,,,,,,,,,,,,0,1,None,532.492737499997,,,,,None,,0,,,2025.2.4,,,532.4792859000154,534.1996349999681,,,532.4927928666623,533.2588227000087,,,116,0,2026-07-21_15:52:24.801810,116,17,,None,,None,116,116,0,116,,,,,,ball,Ballon,Ball,
537.9823932999861,538.9798476999858,0.98,,,3,538.9799222999718,538.9799588000169,,,house,9,9,,,,,,,,,,,,,,,,,,,,,,,,,,None,,,None,2026-07-21_15h43.31.784,12,TSRlearn_localizer-concepts,2026-07-21 15h43.33.075437 +0200,,536.2914256000076,537.9953887999873,537.9953887999873,539.0045219999738,,,,60.065723919094076,535.520500899991,536.2914256000076,,,535.4833980000112,536.2622706000111,,,house\house_12.jpg,,,,,,,,,,,,,,,,,,,,0,1,None,536.2914256000076,,,,,None,,0,,,2025.2.4,,,536.2687644999824,537.9823060000199,,,536.2787043666506,536.827989500016,,,117,0,2026-07-21_15:52:28.581074,117,18,,None,,None,117,117,0,117,,,,,,house,Maison,Haus,
541.4733649999835,542.5067782999831,1.02,,,3,542.5068633999908,542.5069038000074,,,bicycle,2,2,,,,,,,,,,,,,,,,,,,,,,,,,,None,,,None,2026-07-21_15h43.31.784,16,TSRlearn_localizer-concepts,2026-07-21 15h43.33.075437 +0200,,539.7669444999774,541.4899718000088,541.4899718000088,542.5566088000196,,,,60.065723919094076,539.0045219999738,539.7669444999774,,,538.9949758999865,539.7481850999757,,,bicycle\bicycle_16.jpg,,,,,,,,,,,,,,,,,,,,0,1,None,539.7669444999774,,,,,None,,0,,,2025.2.4,,,539.7500862000161,541.473292300012,,,539.7646427666807,540.4618438999751,,,118,0,2026-07-21_15:52:32.065095,118,19,,None,,None,118,118,0,118,,,,,,bicycle,Vélo,Fahrrad,
545.0144271000172,546.0128021999844,1,,,3,546.0128855999792,546.0129288000171,,,bread,3,3,,,,,,,,,,,,,,,,,,,,,,,,,,None,,,None,2026-07-21_15h43.31.784,48,TSRlearn_localizer-concepts,2026-07-21 15h43.33.075437 +0200,,543.3178809999954,545.0300366000156,545.0300366000156,546.067581499985,,,,60.065723919094076,542.5566088000196,543.3178809999954,,,542.5424521999666,543.2972095999867,,,bread\bread_48.jpg,,,,,,,,,,,,,,,,,,,,0,1,None,543.3178809999954,,,,,None,,0,,,2025.2.4,,,543.3004505999852,545.0143503000145,,,543.3136328666626,544.2278766999952,,,119,0,2026-07-21_15:52:35.617182,119,20,,None,,None,119,119,0,119,,,,,,bread,Pain,Brot,
548.5125508999918,549.2951309999917,0.77,,,3,549.295212899975,549.2952540999977,,,flower,6,6,,,,,,,,,,,,,,,,,,,,,,,,,,None,,,None,2026-07-21_15h43.31.784,14,TSRlearn_localizer-concepts,2026-07-21 15h43.33.075437 +0200,,546.8268289999687,548.5277624999871,548.5277624999871,549.4619260000181,,,,60.065723919094076,546.067581499985,546.8268289999687,,,546.0461836999748,546.8101491999696,,,flower\flower_14.jpg,,,,,,,,,,,,,,,,,,,,0,1,None,546.8268289999687,,,,,None,,0,,,2025.2.4,,,546.8132115000044,548.5124721999746,,,546.8265559666363,547.7295821000007,,,120,0,2026-07-21_15:52:39.128155,120,21,,None,,None,120,120,0,120,,,,,,flower,Fleur,Blume,
551.9031407000148,553.0375619999832,1.12,,,3,553.0376521999715,553.0377002999885,,,ball,1,1,,,,,,,,,,,,,,,,,,,,,,,,,,None,,,None,2026-07-21_15h43.31.784,14,TSRlearn_localizer-concepts,2026-07-21 15h43.33.075437 +0200,,550.2151704999851,551.9200483000022,551.9200483000022,553.0649841999984,,,,60.065723919094076,549.4619260000181,550.2151704999851,,,549.3734511000221,550.194925400021,,,ball\ball_14.jpg,,,,,,,,,,,,,,,,,,,,0,1,None,550.2151704999851,,,,,None,,0,,,2025.2.4,,,550.19815750001,551.9030689999927,,,550.2112972666548,550.9887418000144,,,121,0,2026-07-21_15:52:42.522499,121,22,,None,,None,121,121,0,121,,,,,,ball,Ballon,Ball,
555.5236555999727,556.3763225000002,0.84,,,3,556.3764048999874,556.3764458000078,,,house,9,9,,,,,,,,,,,,,,,,,,,,,,,,,,None,,,None,2026-07-21_15h43.31.784,7,TSRlearn_localizer-concepts,2026-07-21 15h43.33.075437 +0200,,553.8348701000214,555.5393899999908,555.5393899999908,556.5040561999776,,,,60.065723919094076,553.0649841999984,553.8348701000214,,,553.0545568999951,553.8113872999675,,,house\house_07.jpg,,,,,,,,,,,,,,,,,,,,0,1,None,553.8348701000214,,,,,None,,0,,,2025.2.4,,,553.8162027000217,555.5235786999692,,,553.8278112666487,554.3690914000035,,,122,0,2026-07-21_15:52:46.125557,122,23,,None,,None,122,122,0,122,,,,,,house,Maison,Haus,
558.9597619000124,560.0096136999782,1.04,,,3,560.009728999983,560.0097780000069,,,bread,3,8,,,,,,,,,,,,,,,,,,,,,,,,,,None,,,r,2026-07-21_15h43.31.784,15,TSRlearn_localizer-concepts,2026-07-21 15h43.33.075437 +0200,,557.2577569999848,558.9742814999772,558.9742814999772,560.0882910999935,,,,60.065723919094076,556.5040561999776,557.2577569999848,,,556.4473260000232,557.2394413999864,,,bread\bread_15.jpg,,,,,,,,,,,,,,,,,,,,1,1,None,557.2577569999848,,,,,left,,0,,,2025.2.4,,,557.2430798999849,558.9596863000188,,,557.2559210666843,557.7422116000089,,,123,0,2026-07-21_15:52:49.564629,123,24,,None,,None,123,123,0,123,,,,,,hand,Main,Hand,
562.5372194999945,563.5361308999709,0.99,,,3,563.5362260999973,563.5362708999892,,,chair,4,4,,,,,,,,,,,,,,,,,,,,,,,,,,None,,,None,2026-07-21_15h43.31.784,45,TSRlearn_localizer-concepts,2026-07-21 15h43.33.075437 +0200,,560.8499635999906,562.552594400011,562.552594400011,563.6133624999784,,,,60.065723919094076,560.0882910999935,560.8499635999906,,,560.0626979999943,560.8334652999765,,,chair\chair_45.jpg,,,,,,,,,,,,,,,,,,,,0,1,None,560.8499635999906,,,,,None,,0,,,2025.2.4,,,560.8373729999876,562.5371158000198,,,560.849882566665,561.4178219999885,,,124,0,2026-07-21_15:52:53.148864,124,25,,None,,None,124,124,0,124,,,,,,chair,Chaise,Stuhl,
566.0741328999866,567.2226984999725,1.14,,,3,567.2227760999813,567.2228152999887,,,hand,8,8,,,,,,,,,,,,,,,,,,,,,,,,,,None,,,None,2026-07-21_15h43.31.784,5,TSRlearn_localizer-concepts,2026-07-21 15h43.33.075437 +0200,,564.3654101999709,566.0853201000136,566.0853201000136,567.2604042000021,,,,60.065723919094076,563.6133624999784,564.3654101999709,,,563.5933461000095,564.3491005999967,,,hand\hand_05.jpg,,,,,,,,,,,,,,,,,,,,0,1,None,564.3654101999709,,,,,None,,0,,,2025.2.4,,,564.3525964000146,566.0740487999865,,,564.3656105666344,564.8595912000164,,,125,0,2026-07-21_15:52:56.673936,125,26,,None,,None,125,125,0,125,,,,,,hand,Main,Hand,
569.714696799987,570.746990500018,1.02,,,3,570.7470600999659,570.747094099992,,,chair,4,4,,,,,,,,,,,,,,,,,,,,,,,,,,None,,,None,2026-07-21_15h43.31.784,23,TSRlearn_localizer-concepts,2026-07-21 15h43.33.075437 +0200,,568.0234150000033,569.7307856999687,569.7307856999687,570.7705908999778,,,,60.065723919094076,567.2604042000021,568.0234150000033,,,567.2393379000132,568.0021331000025,,,chair\chair_23.jpg,,,,,,,,,,,,,,,,,,,,0,1,None,568.0234150000033,,,,,None,,0,,,2025.2.4,,,568.0059251000057,569.7146351999836,,,568.0185864666748,568.5657764999778,,,126,0,2026-07-21_15:53:00.320977,126,27,,None,,None,126,126,0,126,,,,,,chair,Chaise,Stuhl,
573.2466720999801,574.1512614999665,0.9,,,3,574.1513375000213,574.1513757000212,,,dog,5,5,,,,,,,,,,,,,,,,,,,,,,,,,,None,,,None,2026-07-21_15h43.31.784,11,TSRlearn_localizer-concepts,2026-07-21 15h43.33.075437 +0200,,571.533274299989,573.2631149999797,573.2631149999797,574.1950214999961,,,,60.065723919094076,570.7705908999778,571.533274299989,,,570.7623180999653,571.5178359000129,,,dog\dog_11.jpg,,,,,,,,,,,,,,,,,,,,0,1,None,571.533274299989,,,,,None,,0,,,2025.2.4,,,571.5211328999721,573.2466039999854,,,571.534231266651,572.0129862999893,,,127,0,2026-07-21_15:53:03.831164,127,28,,None,,None,127,127,0,127,,,,,,dog,Chien,Hund,
576.6535072000115,577.7882088000188,1.13,,,3,577.7882991000079,577.7883422999876,,,flower,6,6,,,,,,,,,,,,,,,,,,,,,,,,,,None,,,None,2026-07-21_15h43.31.784,27,TSRlearn_localizer-concepts,2026-07-21 15h43.33.075437 +0200,,574.9657998000039,576.6697592000128,576.6697592000128,577.8367570000119,,,,60.065723919094076,574.1950214999961,574.9657998000039,,,574.1789220999926,574.9359239999903,,,flower\flower_27.jpg,,,,,,,,,,,,,,,,,,,,0,1,None,574.9657998000039,,,,,None,,0,,,2025.2.4,,,574.9423255000147,576.6534253999707,,,574.9521278666837,575.8625853999984,,,128,0,2026-07-21_15:53:07.255594,128,29,,None,,None,128,128,0,128,,,,,,flower,Fleur,Blume,
580.3016404000227,581.3937555999728,1.09,,,3,581.3938290000078,581.3938643999863,,,hand,8,8,,,,,,,,,,,,,,,,,,,,,,,,,,None,,,None,2026-07-21_15h43.31.784,10,TSRlearn_localizer-concepts,2026-07-21 15h43.33.075437 +0200,,578.5944814999821,580.3123358999728,580.3123358999728,581.4460717000184,,,,60.065723919094076,577.8367570000119,578.5944814999821,,,577.818719199975,578.5778742000111,,,hand\hand_10.jpg,,,,,,,,,,,,,,,,,,,,0,1,None,578.5944814999821,,,,,None,,0,,,2025.2.4,,,578.581286599976,580.3015714000212,,,578.5943785666643,579.0784522999893,,,129,0,2026-07-21_15:53:10.897330,129,30,,None,,None,129,129,0,129,,,,,,hand,Main,Hand,
583.9175583000178,585.0457433999982,1.12,,,3,585.045829300012,585.0458728999947,,,dog,5,5,,,,,,,,,,,,,,,,,,,,,,,,,,None,,,None,2026-07-21_15h43.31.784,44,TSRlearn_localizer-concepts,2026-07-21 15h43.33.075437 +0200,,582.2106168000028,583.9339661999838,583.9339661999838,585.1000005999813,,,,60.065723919094076,581.4460717000184,582.2106168000028,,,581.4328368999995,582.1941757000168,,,dog\dog_44.jpg,,,,,,,,,,,,,,,,,,,,0,1,None,582.2106168000028,,,,,None,,0,,,2025.2.4,,,582.1979098999873,583.917484799982,,,582.2105774666454,582.7025879999856,,,130,0,2026-07-21_15:53:14.506645,130,31,,None,,None,130,130,0,130,,,,,,dog,Chien,Hund,
587.5585833999794,588.7914665999706,1.23,,,3,588.791541100014,588.7915809999686,,,jacket,10,10,,,,,,,,,,,,,,,,,,,,,,,,,,None,,,None,2026-07-21_15h43.31.784,17,TSRlearn_localizer-concepts,2026-07-21 15h43.33.075437 +0200,,585.8576159999939,587.5748165000114,587.5748165000114,588.8229068000219,,,,60.065723919094076,585.1000005999813,585.8576159999939,,,585.0781368999742,585.8332366999821,,,jacket\jacket_17.jpg,,,,,,,,,,,,,,,,,,,,0,1,None,585.8576159999939,,,,,None,,0,,,2025.2.4,,,585.8383433999843,587.5585187000106,,,585.8496676666584,586.3798445999855,,,131,0,2026-07-21_15:53:18.160574,131,32,,None,,None,131,131,0,131,,,,,,jacket,Veste,Jacke,
591.2914265000145,592.1626205000211,0.87,,,3,592.1627423000173,592.1627906999784,,,hammer,7,7,,,,,,,,,,,,,,,,,,,,,,,,,,None,,,None,2026-07-21_15h43.31.784,14,TSRlearn_localizer-concepts,2026-07-21 15h43.33.075437 +0200,,589.5888013999793,591.3071104999981,591.3071104999981,592.2462296999875,,,,60.065723919094076,588.8229068000219,589.5888013999793,,,588.8138285999885,589.5674183999654,,,hammer\hammer_14.jpg,,,,,,,,,,,,,,,,,,,,0,1,None,589.5888013999793,,,,,None,,0,,,2025.2.4,,,589.5724339999724,591.2913197000162,,,589.5838225666705,590.0940925999894,,,132,0,2026-07-21_15:53:21.883480,132,33,,None,,None,132,132,0,132,,,,,,hammer,Marteau,Hammer,
594.7018981999718,595.5748069999972,0.87,,,3,595.5748787000193,595.5749152000062,,,ball,1,9,,,,,,,,,,,,,,,,,,,,,,,,,,None,,,r,2026-07-21_15h43.31.784,45,TSRlearn_localizer-concepts,2026-07-21 15h43.33.075437 +0200,,593.0031540999771,594.7139689999749,594.7139689999749,595.6071343999938,,,,60.065723919094076,592.2462296999875,593.0031540999771,,,592.2144322000095,592.9788150999811,,,ball\ball_45.jpg,,,,,,,,,,,,,,,,,,,,1,1,None,593.0031540999771,,,,,right,,0,,,2025.2.4,,,592.9842123999842,594.7018145999755,,,592.9952763666554,593.5456759000081,,,133,0,2026-07-21_15:53:25.306803,133,34,,None,,None,133,133,0,133,,,,,,house,Maison,Haus,
598.055656099983,598.8720201000106,0.81,,,3,598.8720902000205,598.8721276000142,,,bicycle,2,2,,,,,,,,,,,,,,,,,,,,,,,,,,None,,,None,2026-07-21_15h43.31.784,31,TSRlearn_localizer-concepts,2026-07-21 15h43.33.075437 +0200,,596.3664446999901,598.0720816999674,598.0720816999674,598.8970694000018,,,,60.065723919094076,595.6071343999938,596.3664446999901,,,595.5912758000195,596.3471901000012,,,bicycle\bicycle_31.jpg,,,,,,,,,,,,,,,,,,,,0,1,None,596.3664446999901,,,,,None,,0,,,2025.2.4,,,596.3496951999841,598.055591100012,,,596.3636014666447,597.0616767000174,,,134,0,2026-07-21_15:53:28.667707,134,35,,None,,None,134,134,0,134,,,,,,bicycle,Vélo,Fahrrad,
601.362078599981,602.3919479000033,1.03,,,3,602.3920429999707,602.3921041999711,,,jacket,10,10,,,,,,,,,,,,,,,,,,,,,,,,,,None,,,None,2026-07-21_15h43.31.784,3,TSRlearn_localizer-concepts,2026-07-21 15h43.33.075437 +0200,,599.6653519999818,601.3791316999705,601.3791316999705,602.4410947000142,,,,60.065723919094076,598.8970694000018,599.6653519999818,,,598.8882546999957,599.6456129999715,,,jacket\jacket_03.jpg,,,,,,,,,,,,,,,,,,,,0,1,None,599.6653519999818,,,,,None,,0,,,2025.2.4,,,599.6501792999916,601.361988699995,,,599.6620005666666,600.1899570999667,,,135,0,2026-07-21_15:53:31.957643,135,36,,None,,None,135,135,0,135,,,,,,jacket,Veste,Jacke,
